id,ax,ay,az,timestamp,tag
0,0.07661445438861847,-0.31603461503982544,10.007762908935547,381837129575176,OTHER
1,0.009576806798577309,-0.35434186458587646,9.959878921508789,381837149655351,OTHER
2,-0.019153613597154617,-0.3256114423274994,10.02691650390625,381837169735525,OTHER
3,-0.028730420395731926,-0.23942017555236816,10.007762908935547,381837189815701,OTHER
4,-0.028730420395731926,-0.31603461503982544,10.02691650390625,381837209895875,OTHER
5,-0.019153613597154617,-0.3734954595565796,10.036493301391602,381837229976050,OTHER
6,-0.019153613597154617,-0.31603461503982544,10.017339706420898,381837250025708,OTHER
7,-0.019153613597154617,-0.4405331015586853,10.007762908935547,381837270105883,OTHER
8,-0.028730420395731926,-0.2968810200691223,10.007762908935547,381837290186057,OTHER
9,0.019153613597154617,-0.31603461503982544,10.007762908935547,381837310266233,OTHER
10,0.0,-0.28730419278144836,9.911994934082031,381837330346407,OTHER
11,-0.05746084079146385,-0.35434186458587646,9.979032516479492,381837350426581,OTHER
12,-0.028730420395731926,-0.3064578175544739,9.979032516479492,381837370506757,OTHER
13,0.047884032130241394,-0.3256114423274994,10.093954086303711,381837390556415,OTHER
14,0.038307227194309235,-0.363918662071228,9.864110946655273,381837410636589,OTHER
15,0.05746084079146385,-0.3064578175544739,9.979032516479492,381837430716764,OTHER
16,0.009576806798577309,-0.31603461503982544,9.959878921508789,381837450796939,OTHER
17,-0.028730420395731926,-0.3256114423274994,9.96945571899414,381837470877113,OTHER
18,-0.07661445438861847,-0.2777273952960968,9.979032516479492,381837490957289,OTHER
19,-0.028730420395731926,-0.3064578175544739,9.921571731567383,381837511037463,OTHER
20,0.0,-0.3064578175544739,10.007762908935547,381837531117637,OTHER
21,0.019153613597154617,-0.33518823981285095,9.998186111450195,381837551197813,OTHER
22,0.047884032130241394,-0.33518823981285095,10.007762908935547,381837571277987,OTHER
23,0.0,-0.26815059781074524,9.988609313964844,381837591358163,OTHER
24,0.047884032130241394,-0.3064578175544739,10.065223693847656,381837611407820,OTHER
25,-0.019153613597154617,-0.2777273952960968,10.02691650390625,381837631487995,OTHER
26,-0.009576806798577309,-0.31603461503982544,9.96945571899414,381837651568169,OTHER
27,0.0,-0.26815059781074524,9.998186111450195,381837671648345,OTHER
28,0.019153613597154617,-0.363918662071228,9.940725326538086,381837691728519,OTHER
29,0.009576806798577309,-0.363918662071228,10.017339706420898,381837711808694,OTHER
30,0.009576806798577309,-0.2968810200691223,10.036493301391602,381837731888869,OTHER
31,-0.07661445438861847,-0.31603461503982544,9.921571731567383,381837751969043,OTHER
32,0.07661445438861847,-0.2585737705230713,10.065223693847656,381837772049219,OTHER
33,0.0,-0.363918662071228,9.998186111450195,381837792129393,OTHER
34,-0.12449848651885986,-0.8236053586006165,9.835380554199219,381837812209568,OTHER
35,0.2968810200691223,-3.6774938106536865,9.988609313964844,381837832289743,OTHER
36,0.028730420395731926,-1.5418659448623657,9.950302124023438,381837852369917,OTHER
37,0.6703764796257019,-1.50355863571167,9.998186111450195,381837872450093,OTHER
38,0.6224924325942993,-1.0247182846069336,10.122684478759766,381837892499751,OTHER
39,0.33518823981285095,-1.072602391242981,10.08437728881836,381837912579925,OTHER
40,0.38307225704193115,-1.3311761617660522,10.074800491333008,381837932660099,OTHER
41,-0.4213795065879822,-0.545877993106842,10.572794914245605,381837952740275,OTHER
42,-0.4405331015586853,-0.7469909191131592,10.20887565612793,381837972820449,OTHER
43,-0.6224924325942993,-0.6512228846549988,9.911994934082031,381837992900624,OTHER
44,-0.47884035110473633,-0.43095630407333374,9.864110946655273,381838012980799,OTHER
45,-0.8236053586006165,-0.6703764796257019,9.643844604492188,381838033060973,OTHER
46,-0.8044517636299133,-0.6799532771110535,10.113107681274414,381838053141149,OTHER
47,-0.47884035110473633,-0.38307225704193115,9.911994934082031,381838073221323,OTHER
48,-0.47884035110473633,1.235408067703247,10.141838073730469,381838093301498,OTHER
49,-0.28730419278144836,1.359906554222107,9.864110946655273,381838113351155,OTHER
50,-0.1149216815829277,0.7086837291717529,9.96945571899414,381838133431331,OTHER
51,-0.10534487664699554,0.4884171485900879,9.959878921508789,381838153511505,OTHER
52,0.06703764945268631,0.5650315880775452,9.653421401977539,381838173591680,OTHER
53,0.5650315880775452,1.4939818382263184,9.940725326538086,381838193671855,OTHER
54,0.6607996821403503,1.2545616626739502,9.988609313964844,381838213752029,OTHER
55,0.6320692300796509,1.2545616626739502,10.390835762023926,381838233832205,OTHER
56,0.028730420395731926,-0.3926490843296051,9.998186111450195,381838253912379,OTHER
57,0.047884032130241394,-0.3256114423274994,9.911994934082031,381838273992554,OTHER
58,0.15322890877723694,-0.3064578175544739,10.160991668701172,381838294072729,OTHER
59,0.07661445438861847,-0.31603461503982544,10.055646896362305,381838314152904,OTHER
60,0.038307227194309235,-0.28730419278144836,10.017339706420898,381838334233079,OTHER
61,0.028730420395731926,-0.363918662071228,9.959878921508789,381838354282736,OTHER
62,0.0,-0.3256114423274994,10.02691650390625,381838374362911,OTHER
63,-0.038307227194309235,-0.2777273952960968,10.02691650390625,381838394443086,OTHER
64,0.05746084079146385,-0.3447650372982025,10.017339706420898,381838414523261,OTHER
65,-0.038307227194309235,-0.3064578175544739,10.017339706420898,381838434603435,OTHER
66,-0.009576806798577309,-0.2777273952960968,10.007762908935547,381838454683610,OTHER
67,0.009576806798577309,-0.3256114423274994,9.96945571899414,381838474763785,OTHER
68,0.019153613597154617,-0.31603461503982544,9.998186111450195,381838494843960,OTHER
69,0.028730420395731926,-0.2777273952960968,9.892841339111328,381838514924135,OTHER
70,0.028730420395731926,-0.33518823981285095,9.931148529052734,381838535004309,OTHER
71,0.09576806426048279,-0.3447650372982025,10.017339706420898,381838555084484,OTHER
72,0.038307227194309235,-0.3447650372982025,10.017339706420898,381838575164659,OTHER
73,0.047884032130241394,-0.33518823981285095,9.96945571899414,381838595244834,OTHER
74,0.047884032130241394,-0.31603461503982544,10.055646896362305,381838615294491,OTHER
75,0.028730420395731926,-0.3064578175544739,9.979032516479492,381838635374666,OTHER
76,0.06703764945268631,-0.35434186458587646,9.979032516479492,381838655454841,OTHER
77,0.06703764945268631,-0.2777273952960968,10.02691650390625,381838675535016,OTHER
78,0.05746084079146385,-0.2777273952960968,9.883264541625977,381838695615191,OTHER
79,0.019153613597154617,-0.24899697303771973,9.979032516479492,381838715695365,OTHER
80,-0.009576806798577309,-0.2968810200691223,10.017339706420898,381838735775540,OTHER
81,-0.028730420395731926,-0.31603461503982544,10.007762908935547,381838755855715,OTHER
82,0.0,-0.3926490843296051,9.988609313964844,381838775935890,OTHER
83,-0.028730420395731926,-0.3447650372982025,10.074800491333008,381838796016064,OTHER
84,0.05746084079146385,-0.363918662071228,9.998186111450195,381838816096240,OTHER
85,0.019153613597154617,-0.3064578175544739,9.979032516479492,381838836176414,OTHER
86,0.06703764945268631,-0.26815059781074524,10.017339706420898,381838856256589,OTHER
87,0.07661445438861847,-0.2585737705230713,9.921571731567383,381838876336764,OTHER
88,0.047884032130241394,-0.3256114423274994,9.979032516479492,381838896416938,OTHER
89,0.038307227194309235,-0.31603461503982544,10.065223693847656,381838916497114,OTHER
90,1.1875240802764893,0.08619125932455063,10.074800491333008,381838936577288,OTHER
91,2.1547815799713135,0.5841852426528931,10.065223693847656,381838956657463,OTHER
92,3.0358476638793945,0.6129156351089478,10.007762908935547,381838976737638,OTHER
93,0.5937620401382446,-1.1013327836990356,11.875240325927734,381838996787296,OTHER
94,7.2113356590271,-0.181959331035614,11.587936401367188,381839016867470,OTHER
95,0.6991068720817566,-2.011129379272461,12.737153053283691,381839036947645,OTHER
96,-1.0055646896362305,-1.436521053314209,18.35873794555664,381839057027820,OTHER
97,4.060565948486328,2.183511972427368,19.661184310913086,381839077107994,OTHER
98,0.9289502501487732,0.5171475410461426,14.863204002380371,381839097188170,OTHER
99,1.359906554222107,-0.6512228846549988,13.838485717773438,381839117268344,OTHER
100,0.1149216815829277,1.6663644313812256,10.47702693939209,381839137348519,OTHER
101,2.298433542251587,3.6391866207122803,9.835380554199219,381839157428694,OTHER
102,2.6144683361053467,3.6966474056243896,8.092401504516602,381839177508868,OTHER
103,2.7485435009002686,4.20421838760376,8.169015884399414,381839197589044,OTHER
104,2.8347349166870117,3.706224203109741,8.02536392211914,381839217669218,OTHER
105,1.4748282432556152,2.691082715988159,7.441178798675537,381839237749392,OTHER
106,0.35434186458587646,2.7293899059295654,6.876147270202637,381839257829568,OTHER
107,-0.7852981686592102,2.518700122833252,7.096413612365723,381839277909742,OTHER
108,-0.33518823981285095,3.00711727142334,8.628703117370605,381839297989918,OTHER
109,-0.038307227194309235,3.1316158771514893,8.954314231872559,381839318070092,OTHER
110,0.8044517636299133,3.4763808250427246,9.2033109664917,381839338150267,OTHER
111,1.1204863786697388,3.045424461364746,8.89685344696045,381839358230442,OTHER
112,-0.7757213711738586,1.9632453918457031,7.402871608734131,381839378310616,OTHER
113,-2.2409727573394775,2.719813108444214,7.738059997558594,381839398390792,OTHER
114,-2.9305028915405273,3.064578056335449,7.15387487411499,381839418470966,OTHER
115,-3.093308687210083,3.2178070545196533,6.665457725524902,381839438551141,OTHER
116,-1.6855180263519287,3.667917013168335,7.096413612365723,381839458631316,OTHER
117,-1.723825216293335,4.309563159942627,9.375694274902344,381839478711490,OTHER
118,-2.432508945465088,4.185064792633057,7.6997528076171875,381839498791665,OTHER
119,-3.88818359375,2.4899697303771973,6.550535678863525,381839518871840,OTHER
120,-4.692635536193848,2.049436569213867,5.353435039520264,381839538952015,OTHER
121,-5.506663799285889,2.145204782485962,6.167463779449463,381839559032190,OTHER
122,-7.508216381072998,2.1356279850006104,4.6734819412231445,381839579081848,OTHER
123,-4.548983097076416,4.127603530883789,11.961431503295898,381839599162022,OTHER
124,-2.183511972427368,5.104437828063965,13.455413818359375,381839619242197,OTHER
125,-3.4380736351013184,4.462791919708252,6.694188117980957,381839639322372,OTHER
126,-3.667917013168335,4.261679172515869,6.751648902893066,381839659402546,OTHER
127,-2.2409727573394775,4.577713489532471,9.222464561462402,381839679482721,OTHER
128,-2.6144683361053467,3.773261785507202,8.485051155090332,381839699562896,OTHER
129,-4.8937482833862305,3.160346269607544,6.694188117980957,381839719643071,OTHER
130,-6.004657745361328,3.466804027557373,8.149862289428711,381839739723246,OTHER
131,-5.583278179168701,4.271255970001221,8.686163902282715,381839759803420,OTHER
132,-4.156333923339844,4.778826713562012,7.546523571014404,381839779853078,OTHER
133,-0.47884035110473633,6.215347766876221,5.659893035888672,381839799933253,OTHER
134,-2.7102363109588623,4.481945514678955,5.966350555419922,381839820013428,OTHER
135,-4.644751071929932,4.654327869415283,6.023811340332031,381839840093603,OTHER
136,-5.066130638122559,5.07570743560791,6.2632317543029785,381839860173777,OTHER
137,-5.085284233093262,5.20978307723999,6.646304130554199,381839880253952,OTHER
138,-4.663905143737793,5.813121795654297,6.339846134185791,381839900334127,OTHER
139,-4.797980308532715,5.746084213256836,6.27280855178833,381839920414302,OTHER
140,-5.2480902671813965,5.803544998168945,5.793968200683594,381839940494477,OTHER
141,-5.612008571624756,5.726930618286133,5.497087001800537,381839960574651,OTHER
142,-5.544970989227295,5.95677375793457,5.449203014373779,381839980654826,OTHER
143,-5.190629482269287,6.042964935302734,5.535394191741943,381840000735001,OTHER
144,-5.4875102043151855,6.349422931671143,4.922478675842285,381840020815176,OTHER
145,-5.918466567993164,6.445190906524658,4.501099109649658,381840040895351,OTHER
146,-6.224924564361572,6.981492042541504,4.443638324737549,381840060975525,OTHER
147,-6.349422931671143,7.163451671600342,3.7828385829925537,381840081055700,OTHER
148,-6.387730121612549,6.866570472717285,3.466804027557373,381840101135875,OTHER
149,-6.521805286407471,6.703764915466309,2.978386878967285,381840121216049,OTHER
150,-6.358999729156494,6.9240312576293945,3.160346269607544,381840141296225,OTHER
151,-6.291962146759033,6.6846113204956055,2.8634653091430664,381840161376399,OTHER
152,-6.406883716583252,6.081272125244141,2.231395959854126,381840181456574,OTHER
153,-6.2632317543029785,5.784391403198242,1.886630892753601,381840201536749,OTHER
154,-5.870582580566406,5.851428985595703,2.499546527862549,381840221616923,OTHER
155,-6.4834980964660645,5.985504150390625,1.3024457693099976,381840241697099,OTHER
156,-6.598419666290283,6.14831018447876,-0.8427590131759644,381840261777273,OTHER
157,-5.774814605712891,6.607996463775635,-0.7757213711738586,381840281826931,OTHER
158,-5.295974254608154,6.7708024978637695,-0.15322890877723694,381840301907105,OTHER
159,-4.8937482833862305,6.655880928039551,-0.20111294090747833,381840321987281,OTHER
160,-5.027823448181152,6.2632317543029785,-0.17238251864910126,381840342067455,OTHER
161,-5.353435039520264,6.196194171905518,-0.9481038451194763,381840362147630,OTHER
162,-3.4955344200134277,10.429142951965332,0.08619125932455063,381840382227805,OTHER
163,-5.257667064666748,10.706870079040527,-0.5746083855628967,381840402307979,OTHER
164,-4.376600742340088,14.413094520568848,-1.6663644313812256,381840422388155,OTHER
165,-5.295974254608154,10.773907661437988,-4.223371982574463,381840442468329,OTHER
166,-8.40843677520752,6.387730121612549,-5.640739440917969,381840462548505,OTHER
167,-7.824251174926758,5.018246650695801,-3.6774938106536865,381840482628679,OTHER
168,-7.33583402633667,7.967903137207031,0.5267243981361389,381840502708853,OTHER
169,-8.485051155090332,8.14028549194336,0.28730419278144836,381840522789029,OTHER
170,-6.904877662658691,7.680599212646484,0.07661445438861847,381840542869203,OTHER
171,-5.659893035888672,7.048529624938965,0.689530074596405,381840562949378,OTHER
172,-5.363011837005615,6.5696892738342285,0.8810662031173706,381840583029553,OTHER
173,-5.39174222946167,6.694188117980957,1.015141487121582,381840603109727,OTHER
174,-6.004657745361328,6.291962146759033,1.0821791887283325,381840623189903,OTHER
175,-6.157886981964111,6.445190906524658,1.2066776752471924,381840643270077,OTHER
176,-7.661445617675781,6.196194171905518,0.4884171485900879,381840663319735,OTHER
177,-7.489062786102295,6.789956092834473,-0.20111294090747833,381840683399909,OTHER
178,-6.933608055114746,7.680599212646484,0.181959331035614,381840703480085,OTHER
179,-7.249642848968506,7.316680431365967,-0.3734954595565796,381840723560259,OTHER
180,-8.810662269592285,2.164358377456665,-1.8962076902389526,381840743640434,OTHER
181,-5.841852188110352,5.57370138168335,5.9088897705078125,381840763720609,OTHER
182,-4.577713489532471,5.928043365478516,6.540958881378174,381840783800783,OTHER
183,-7.4316020011901855,3.1890766620635986,-1.647210717201233,381840803880959,OTHER
184,-7.747636795043945,4.63517427444458,-2.2888567447662354,381840823961133,OTHER
185,-6.349422931671143,6.6846113204956055,-0.6129156351089478,381840844041308,OTHER
186,-6.406883716583252,7.374141216278076,-0.6991068720817566,381840864121483,OTHER
187,-7.2113356590271,7.15387487411499,0.12449848651885986,381840884201657,OTHER
188,-7.240066051483154,7.000645637512207,-0.3064578175544739,381840904281832,OTHER
189,-6.157886981964111,7.287950038909912,0.4692635238170624,381840924362007,OTHER
190,-5.5545477867126465,7.479485988616943,1.1683704853057861,381840944442182,OTHER
191,-5.583278179168701,6.885724067687988,1.50355863571167,381840964522357,OTHER
192,-6.818686485290527,5.497087001800537,0.10534487664699554,381840984602532,OTHER
193,-4.836287498474121,4.778826713562012,-0.05746084079146385,381841004682706,OTHER
194,-4.041412353515625,5.114014625549316,2.604891538619995,381841024762881,OTHER
195,-2.2601263523101807,6.406883716583252,2.75812029838562,381841044812539,OTHER
196,0.5841852426528931,6.311115741729736,1.6759412288665771,381841064892714,OTHER
197,2.298433542251587,6.129156112670898,2.3080103397369385,381841084972889,OTHER
198,5.736507415771484,9.279925346374512,1.580173134803772,381841105053063,OTHER
199,10.27591323852539,13.407529830932617,-5.918466567993164,381841125133238,OTHER
200,4.587290287017822,12.459425926208496,-11.061211585998535,381841145213413,OTHER
201,-0.9097966551780701,14.757859230041504,-2.1068975925445557,381841165293588,OTHER
202,-5.65031623840332,21.87342643737793,5.200206279754639,381841185373762,OTHER
203,-8.33182144165039,17.515979766845703,3.6966474056243896,381841205453937,OTHER
204,-6.933608055114746,8.734047889709473,-1.6950948238372803,381841225534112,OTHER
205,-3.5242648124694824,6.349422931671143,-2.1547815799713135,381841245614287,OTHER
206,-2.585737943649292,7.450755596160889,0.28730419278144836,381841265694462,OTHER
207,-2.6623523235321045,9.739612579345703,0.24899697303771973,381841285774636,POCKET
208,-2.75812029838562,10.342951774597168,0.26815059781074524,381841305854811,POCKET
209,-2.5474305152893066,9.567230224609375,0.38307225704193115,381841325934986,POCKET
210,-2.5282769203186035,9.117119789123535,-0.1149216815829277,381841346015160,POCKET
211,-2.920926094055176,9.117119789123535,-0.2106897532939911,381841366095336,POCKET
212,-2.75812029838562,9.155426979064941,0.07661445438861847,381841386175510,POCKET
213,-3.687070608139038,7.402871608734131,1.6950948238372803,381841406225168,OTHER
214,-2.7293899059295654,9.816226959228516,-0.9768342971801758,381841426305343,POCKET
215,-3.466804027557373,9.864110946655273,0.3734954595565796,381841446385518,OTHER
216,-2.6240451335906982,9.84495735168457,0.12449848651885986,381841466465692,POCKET
217,-2.6431987285614014,9.672574996948242,0.14365209639072418,381841486545868,POCKET
218,-2.6431987285614014,9.519346237182617,0.31603461503982544,381841506626042,POCKET
219,-2.5761611461639404,9.14585018157959,0.4213795065879822,381841526706217,POCKET
220,-2.365471363067627,9.327810287475586,0.4213795065879822,381841546786392,POCKET
221,-2.4420857429504395,9.2033109664917,0.2968810200691223,381841566866566,POCKET
222,-2.5665841102600098,9.241618156433105,0.047884032130241394,381841586946742,POCKET
223,-2.3080103397369385,9.53849983215332,-0.019153613597154617,381841607026916,POCKET
224,-2.5282769203186035,9.461885452270508,0.20111294090747833,381841627107090,POCKET
225,-2.671929121017456,9.337387084960938,-0.038307227194309235,381841647187266,POCKET
226,-2.6815059185028076,9.2033109664917,0.2106897532939911,381841667267440,POCKET
227,-2.4803929328918457,9.710882186889648,-0.1628057211637497,381841687347616,POCKET
228,-2.5953147411346436,9.66299819946289,0.009576806798577309,381841707427790,POCKET
229,0.8331822156906128,11.712434768676758,-3.179499864578247,381841727507964,OTHER
230,-4.663905143737793,7.824251174926758,2.38462495803833,381841747588140,OTHER
231,-2.298433542251587,9.27034854888916,-0.20111294090747833,381841767637798,POCKET
232,-2.82515811920166,9.08838939666748,0.6033388376235962,381841787717972,POCKET
233,-2.4612393379211426,9.41400146484375,0.08619125932455063,381841807798146,POCKET
234,-2.806004285812378,9.318233489990234,0.1149216815829277,381841827878322,POCKET
235,-2.873042106628418,9.346963882446289,-0.047884032130241394,381841847958496,POCKET
236,-2.786850690841675,9.327810287475586,0.06703764945268631,381841868038672,POCKET
237,-2.6815059185028076,9.308655738830566,0.181959331035614,381841888118846,POCKET
238,-2.604891538619995,9.308655738830566,0.17238251864910126,381841908199020,POCKET
239,-2.75812029838562,9.327810287475586,-0.047884032130241394,381841928279196,POCKET
240,-2.691082715988159,9.519346237182617,-0.06703764945268631,381841948359370,POCKET
241,-2.6623523235321045,9.433155059814453,-0.06703764945268631,381841968439545,POCKET
242,-2.604891538619995,9.519346237182617,0.028730420395731926,381841988519720,POCKET
243,-2.5665841102600098,9.433155059814453,0.14365209639072418,381842008599894,POCKET
244,-2.3942017555236816,9.299078941345215,0.1628057211637497,381842028680070,POCKET
245,-2.38462495803833,9.289502143859863,0.10534487664699554,381842048760244,POCKET
246,-2.365471363067627,9.385271072387695,0.14365209639072418,381842068840419,POCKET
247,-2.38462495803833,9.452308654785156,0.13407529890537262,381842088890077,POCKET
248,-2.1547815799713135,9.452308654785156,-0.019153613597154617,381842108970252,POCKET
249,-2.0877439975738525,9.385271072387695,-0.2106897532939911,381842129050426,POCKET
250,-1.6089035272598267,9.672574996948242,-0.8619126081466675,381842149130602,POCKET
251,-2.2888567447662354,9.394847869873047,-0.6129156351089478,381842169210776,POCKET
252,-2.212242364883423,9.375694274902344,-0.5937620401382446,381842189290951,POCKET
253,-2.38462495803833,9.346963882446289,-0.5937620401382446,381842209371126,POCKET
254,-2.3942017555236816,9.394847869873047,-0.8427590131759644,381842229451300,POCKET
255,-2.3558945655822754,9.299078941345215,-0.43095630407333374,381842249531475,POCKET
256,-2.7964274883270264,9.097966194152832,-0.4884171485900879,381842269611650,POCKET
257,-2.691082715988159,9.107542991638184,-1.3503297567367554,381842289691825,POCKET
258,-2.6815059185028076,9.260771751403809,-1.8100165128707886,381842309772000,OTHER
259,-2.604891538619995,9.232041358947754,-1.4173674583435059,381842329852174,POCKET
260,-2.6623523235321045,9.251194953918457,-1.37906014919281,381842349932349,POCKET
261,-2.7485435009002686,9.2033109664917,-1.5514427423477173,381842370012524,OTHER
262,-2.6815059185028076,9.251194953918457,-1.522712230682373,381842390092699,OTHER
263,-2.518700122833252,9.040505409240723,-1.6184803247451782,381842410172873,OTHER
264,-2.557007312774658,9.030928611755371,-1.8962076902389526,381842430253048,OTHER
265,-2.7006595134735107,9.222464561462402,-2.2697031497955322,381842450333223,OTHER
266,-2.786850690841675,9.279925346374512,-1.8579005002975464,381842470413398,OTHER
267,-2.892195701599121,9.346963882446289,-1.9345149993896484,381842490493573,OTHER
268,-2.6623523235321045,9.193734169006348,-1.7908629179000854,381842510543230,OTHER
269,-2.7102363109588623,8.887276649475098,-1.8291701078414917,381842530623405,OTHER
270,-2.518700122833252,8.724471092224121,-1.944091796875,381842550703580,OTHER
271,-2.4133553504943848,8.734047889709473,-2.2218191623687744,381842570783755,OTHER
272,-2.3271639347076416,8.810662269592285,-2.3558945655822754,381842590863930,OTHER
273,-2.5091233253479004,8.705317497253418,-2.3750481605529785,381842610944105,OTHER
274,-2.7772738933563232,8.71489429473877,-2.4133553504943848,381842631024279,OTHER
275,-2.738966703414917,8.609549522399902,-2.0398597717285156,381842651104454,OTHER
276,-2.585737943649292,8.523358345031738,-1.7717092037200928,381842671184629,OTHER
277,-2.451662540435791,8.494627952575684,-1.6663644313812256,381842691264803,OTHER
278,-2.4133553504943848,8.523358345031738,-1.580173134803772,381842711344979,OTHER
279,-2.3080103397369385,8.5903959274292,-1.7908629179000854,381842731425153,OTHER
280,-2.346317768096924,8.868123054504395,-1.9728221893310547,381842751505328,OTHER
281,-2.346317768096924,9.097966194152832,-1.9153614044189453,381842771585503,OTHER
282,-2.4899697303771973,9.318233489990234,-1.7142484188079834,381842791665677,OTHER
283,-2.499546527862549,9.548076629638672,-1.5131354331970215,381842811745853,OTHER
284,-2.4803929328918457,9.864110946655273,-1.647210717201233,381842831826027,OTHER
285,-2.3367409706115723,9.84495735168457,-2.1739351749420166,381842851906201,OTHER
286,-2.2026655673980713,9.758766174316406,-2.1739351749420166,381842871986377,OTHER
287,-2.0015525817871094,9.586383819580078,-1.723825216293335,381842892066551,OTHER
288,-1.8483237028121948,9.47146224975586,-1.4844050407409668,381842912146727,POCKET
289,-1.867477297782898,9.299078941345215,-1.4269442558288574,381842932226901,POCKET
290,-1.9345149993896484,9.08838939666748,-1.6280571222305298,381842952307075,OTHER
291,-1.9919757843017578,9.011775016784668,-1.8195933103561401,381842972387251,OTHER
292,-2.31758713722229,9.08838939666748,-1.7908629179000854,381842992467425,OTHER
293,-2.5761611461639404,9.222464561462402,-1.7525556087493896,381843012547601,OTHER
294,-2.786850690841675,9.2033109664917,-1.6089035272598267,381843032627775,OTHER
295,-2.7964274883270264,9.165003776550293,-1.5418659448623657,381843052707949,OTHER
296,-2.499546527862549,9.21288776397705,-1.5131354331970215,381843072757607,OTHER
297,-2.4420857429504395,9.222464561462402,-1.6759412288665771,381843092837783,OTHER
298,-2.4899697303771973,9.279925346374512,-1.647210717201233,381843112917957,OTHER
299,-2.38462495803833,9.21288776397705,-1.6855180263519287,381843132998132,OTHER
300,-2.31758713722229,9.289502143859863,-1.5610195398330688,381843153078307,OTHER
301,-2.212242364883423,9.366117477416992,-1.3215993642807007,381843173158481,POCKET
302,-2.250549554824829,9.346963882446289,-1.2641384601593018,381843193238657,POCKET
303,-2.164358377456665,9.184157371520996,-1.2258312702178955,381843213318831,POCKET
304,-2.2888567447662354,9.155426979064941,-1.1300631761550903,381843233399006,POCKET
305,-2.3080103397369385,9.21288776397705,-1.015141487121582,381843253479181,POCKET
306,-2.2697031497955322,9.404424667358398,-0.9385270476341248,381843273559355,POCKET
307,-2.164358377456665,9.481039047241211,-0.7565677165985107,381843293639530,POCKET
308,-2.0590133666992188,9.528923034667969,-0.6991068720817566,381843313719705,POCKET
309,-1.9057846069335938,9.299078941345215,-0.5746083855628967,381843333799880,POCKET
310,-1.7908629179000854,9.279925346374512,-0.545877993106842,381843353880055,POCKET
311,-1.9536685943603516,9.327810287475586,-0.6033388376235962,381843373960229,POCKET
312,-2.1739351749420166,9.500192642211914,-0.5267243981361389,381843394040404,POCKET
313,-2.2697031497955322,9.528923034667969,-0.5746083855628967,381843414120579,POCKET
314,-2.2409727573394775,9.528923034667969,-0.4596867263317108,381843434200754,POCKET
315,-2.3271639347076416,9.509769439697266,-0.43095630407333374,381843454280929,POCKET
316,-2.3558945655822754,9.35654067993164,-0.31603461503982544,381843474361103,POCKET
317,-2.499546527862549,9.174580574035645,-0.3256114423274994,381843494441278,POCKET
318,-2.6431987285614014,9.260771751403809,-0.31603461503982544,381843514521453,POCKET
319,-2.7676970958709717,9.193734169006348,-0.507570743560791,381843534601628,POCKET
320,-2.7676970958709717,9.2033109664917,-0.5267243981361389,381843554681802,POCKET
321,-2.7485435009002686,9.279925346374512,-0.5841852426528931,381843574792494,POCKET
322,-2.557007312774658,9.385271072387695,-0.47884035110473633,381843594872669,POCKET
323,-2.432508945465088,9.47146224975586,-0.35434186458587646,381843614952844,POCKET
324,-2.2218191623687744,9.433155059814453,-0.33518823981285095,381843635033018,POCKET
325,-2.126051187515259,9.404424667358398,-0.24899697303771973,381843655113194,POCKET
326,-2.1356279850006104,9.385271072387695,-0.3926490843296051,381843675193368,POCKET
327,-2.183511972427368,9.337387084960938,-0.3734954595565796,381843695273542,POCKET
328,-2.231395959854126,9.366117477416992,-0.35434186458587646,381843715353718,POCKET
329,-2.2697031497955322,9.423578262329102,-0.38307225704193115,381843735433892,POCKET
330,-2.2888567447662354,9.423578262329102,-0.4213795065879822,381843755514068,POCKET
331,-2.2697031497955322,9.385271072387695,-0.4213795065879822,381843775594242,POCKET
332,-2.2409727573394775,9.318233489990234,-0.4118026793003082,381843795674416,POCKET
333,-2.231395959854126,9.346963882446289,-0.3734954595565796,381843815754592,POCKET
334,-2.2026655673980713,9.442731857299805,-0.43095630407333374,381843835834766,POCKET
335,-2.250549554824829,9.404424667358398,-0.4596867263317108,381843855914942,POCKET
336,-2.2601263523101807,9.385271072387695,-0.49799394607543945,381843875995116,POCKET
337,-2.2218191623687744,9.423578262329102,-0.49799394607543945,381843896075291,POCKET
338,-2.2218191623687744,9.442731857299805,-0.5650315880775452,381843916155466,POCKET
339,-2.279279947280884,9.366117477416992,-0.5267243981361389,381843936235640,POCKET
340,-2.2601263523101807,9.318233489990234,-0.4692635238170624,381843956315815,POCKET
341,-2.2697031497955322,9.404424667358398,-0.3734954595565796,381843976395990,POCKET
342,-2.1930887699127197,9.404424667358398,-0.4405331015586853,381843996476165,POCKET
343,-2.1356279850006104,9.385271072387695,-0.45010992884635925,381844016556340,POCKET
344,-2.164358377456665,9.35654067993164,-0.47884035110473633,381844036636514,POCKET
345,-2.1547815799713135,9.423578262329102,-0.49799394607543945,381844056716689,POCKET
346,-2.097320795059204,9.41400146484375,-0.43095630407333374,381844076796864,POCKET
347,-2.1068975925445557,9.375694274902344,-0.33518823981285095,381844096846522,POCKET
348,-2.1547815799713135,9.35654067993164,-0.35434186458587646,381844116926696,POCKET
349,-2.1930887699127197,9.35654067993164,-0.47884035110473633,381844137006871,POCKET
350,-2.2888567447662354,9.404424667358398,-0.5267243981361389,381844157087046,POCKET
351,-2.2409727573394775,9.385271072387695,-0.3926490843296051,381844177167221,POCKET
352,-2.183511972427368,9.442731857299805,-0.4692635238170624,381844197247396,POCKET
353,-2.183511972427368,9.35654067993164,-0.5267243981361389,381844217327570,POCKET
354,-2.2601263523101807,9.366117477416992,-0.45010992884635925,381844237407745,POCKET
355,-2.2409727573394775,9.337387084960938,-0.47884035110473633,381844257487920,POCKET
356,-2.2026655673980713,9.375694274902344,-0.5650315880775452,381844277568095,POCKET
357,-2.1930887699127197,9.375694274902344,-0.45010992884635925,381844297648270,POCKET
358,-2.2026655673980713,9.366117477416992,-0.35434186458587646,381844317728444,POCKET
359,-2.212242364883423,9.442731857299805,-0.545877993106842,381844337808619,POCKET
360,-2.183511972427368,9.366117477416992,-0.507570743560791,381844357888794,POCKET
361,-2.164358377456665,9.35654067993164,-0.45010992884635925,381844377968969,POCKET
362,-2.1739351749420166,9.404424667358398,-0.43095630407333374,381844398049143,POCKET
363,-2.212242364883423,9.337387084960938,-0.49799394607543945,381844418129319,POCKET
364,-2.1547815799713135,9.423578262329102,-0.4884171485900879,381844438209493,POCKET
365,-2.231395959854126,9.337387084960938,-0.4405331015586853,381844458259151,POCKET
366,-2.1739351749420166,9.35654067993164,-0.4692635238170624,381844478339326,POCKET
367,-2.1547815799713135,9.452308654785156,-0.4884171485900879,381844498419501,POCKET
368,-2.126051187515259,9.35654067993164,-0.4884171485900879,381844518499675,POCKET
369,-2.1068975925445557,9.375694274902344,-0.4692635238170624,381844538579850,POCKET
370,-2.2026655673980713,9.41400146484375,-0.4884171485900879,381844558660025,POCKET
371,-2.0685901641845703,9.461885452270508,-0.4118026793003082,381844578740199,POCKET
372,-2.1739351749420166,9.423578262329102,-0.43095630407333374,381844598820375,POCKET
373,-2.126051187515259,9.41400146484375,-0.45010992884635925,381844618900549,POCKET
374,-2.1356279850006104,9.385271072387695,-0.40222588181495667,381844638980724,POCKET
375,-2.078166961669922,9.375694274902344,-0.4405331015586853,381844659060899,POCKET
376,-2.097320795059204,9.366117477416992,-0.4405331015586853,381844679141073,POCKET
377,-2.145204782485962,9.41400146484375,-0.38307225704193115,381844699221249,POCKET
378,-2.145204782485962,9.41400146484375,-0.5171475410461426,381844719270906,POCKET
379,-2.1739351749420166,9.41400146484375,-0.43095630407333374,381844739381598,POCKET
380,-2.1547815799713135,9.481039047241211,-0.4213795065879822,381844759431255,POCKET
381,-2.1930887699127197,9.404424667358398,-0.49799394607543945,381844779511431,POCKET
382,-2.1547815799713135,9.346963882446289,-0.4884171485900879,381844799591605,POCKET
383,-2.1068975925445557,9.375694274902344,-0.4596867263317108,381844819671780,POCKET
384,-2.231395959854126,9.423578262329102,-0.4692635238170624,381844839751955,POCKET
385,-2.212242364883423,9.404424667358398,-0.40222588181495667,381844859832129,POCKET
386,-2.183511972427368,9.375694274902344,-0.47884035110473633,381844879912305,POCKET
387,-2.231395959854126,9.41400146484375,-0.47884035110473633,381844899992479,POCKET
388,-2.250549554824829,9.35654067993164,-0.4884171485900879,381844920072655,POCKET
389,-2.1930887699127197,9.423578262329102,-0.4405331015586853,381844940152829,POCKET
390,-2.2026655673980713,9.404424667358398,-0.45010992884635925,381844960202487,POCKET
391,-2.2409727573394775,9.346963882446289,-0.4692635238170624,381844980282661,POCKET
392,-2.2409727573394775,9.385271072387695,-0.4884171485900879,381845000362837,POCKET
393,-2.1356279850006104,9.327810287475586,-0.45010992884635925,381845020443011,POCKET
394,-2.2218191623687744,9.394847869873047,-0.4118026793003082,381845040523185,POCKET
395,-2.298433542251587,9.366117477416992,-0.4596867263317108,381845060603361,POCKET
396,-2.145204782485962,9.35654067993164,-0.4405331015586853,381845080683535,POCKET
397,-2.164358377456665,9.423578262329102,-0.4118026793003082,381845100763711,POCKET
398,-2.164358377456665,9.375694274902344,-0.47884035110473633,381845120843885,POCKET
399,-2.2218191623687744,9.41400146484375,-0.4596867263317108,381845140924059,POCKET
400,-2.1739351749420166,9.375694274902344,-0.38307225704193115,381845160973717,POCKET
401,-2.231395959854126,9.452308654785156,-0.4405331015586853,381845181053893,POCKET
402,-2.2218191623687744,9.327810287475586,-0.4118026793003082,381845201134067,POCKET
403,-2.1739351749420166,9.461885452270508,-0.4213795065879822,381845221214241,POCKET
404,-2.1930887699127197,9.404424667358398,-0.45010992884635925,381845241294417,POCKET
405,-2.1930887699127197,9.375694274902344,-0.43095630407333374,381845261374591,POCKET
406,-2.145204782485962,9.35654067993164,-0.47884035110473633,381845281454767,POCKET
407,-2.1930887699127197,9.41400146484375,-0.4405331015586853,381845301534941,POCKET
408,-2.1739351749420166,9.423578262329102,-0.4118026793003082,381845321584599,POCKET
409,-2.164358377456665,9.423578262329102,-0.3926490843296051,381845341664773,POCKET
410,-2.164358377456665,9.41400146484375,-0.33518823981285095,381845361744949,POCKET
411,-2.2026655673980713,9.375694274902344,-0.4405331015586853,381845381825123,POCKET
412,-2.1930887699127197,9.385271072387695,-0.49799394607543945,381845401905298,POCKET
413,-2.126051187515259,9.346963882446289,-0.5171475410461426,381845421985473,POCKET
414,-2.212242364883423,9.423578262329102,-0.43095630407333374,381845442065647,POCKET
415,-2.183511972427368,9.423578262329102,-0.4405331015586853,381845462145823,POCKET
416,-2.212242364883423,9.442731857299805,-0.4884171485900879,381845482225997,POCKET
417,-2.2026655673980713,9.394847869873047,-0.4692635238170624,381845502275655,POCKET
418,-2.212242364883423,9.433155059814453,-0.4596867263317108,381845522355829,POCKET
419,-2.2409727573394775,9.375694274902344,-0.4596867263317108,381845542436005,POCKET
420,-2.2409727573394775,9.375694274902344,-0.3734954595565796,381845562516179,POCKET
421,-2.2026655673980713,9.337387084960938,-0.4118026793003082,381845582596354,POCKET
422,-2.2601263523101807,9.337387084960938,-0.4213795065879822,381845602676529,POCKET
423,-2.164358377456665,9.461885452270508,-0.4692635238170624,381845622756703,POCKET
424,-2.183511972427368,9.385271072387695,-0.49799394607543945,381845642836879,POCKET
425,-2.1739351749420166,9.375694274902344,-0.45010992884635925,381845662917053,POCKET
426,-2.2218191623687744,9.375694274902344,-0.47884035110473633,381845682997228,POCKET
427,-2.1547815799713135,9.394847869873047,-0.4692635238170624,381845703046885,POCKET
428,-2.1930887699127197,9.461885452270508,-0.38307225704193115,381845723127061,POCKET
429,-2.1930887699127197,9.452308654785156,-0.49799394607543945,381845743207235,POCKET
430,-2.145204782485962,9.385271072387695,-0.47884035110473633,381845763287411,POCKET
431,-2.2218191623687744,9.366117477416992,-0.4118026793003082,381845783367585,POCKET
432,-2.145204782485962,9.47146224975586,-0.47884035110473633,381845803447759,POCKET
433,-2.1739351749420166,9.433155059814453,-0.4596867263317108,381845823527935,POCKET
434,-2.1930887699127197,9.375694274902344,-0.45010992884635925,381845843608109,POCKET
435,-2.1356279850006104,9.461885452270508,-0.40222588181495667,381845863688284,POCKET
436,-2.164358377456665,9.385271072387695,-0.5171475410461426,381845883737942,POCKET
437,-2.2218191623687744,9.404424667358398,-0.4405331015586853,381845903818117,POCKET
438,-2.2409727573394775,9.394847869873047,-0.4213795065879822,381845923898291,POCKET
439,-2.1739351749420166,9.346963882446289,-0.4692635238170624,381845943978467,POCKET
440,-2.1547815799713135,9.375694274902344,-0.4596867263317108,381845964058641,POCKET
441,-2.2697031497955322,9.394847869873047,-0.4405331015586853,381845984138816,POCKET
442,-2.2218191623687744,9.404424667358398,-0.40222588181495667,381846004218991,POCKET
443,-2.2026655673980713,9.385271072387695,-0.45010992884635925,381846024299165,POCKET
444,-2.2218191623687744,9.366117477416992,-0.47884035110473633,381846044379340,POCKET
445,-2.183511972427368,9.385271072387695,-0.43095630407333374,381846064428998,POCKET
446,-2.1739351749420166,9.375694274902344,-0.47884035110473633,381846084509173,POCKET
447,-2.1930887699127197,9.394847869873047,-0.4213795065879822,381846104589347,POCKET
448,-2.212242364883423,9.346963882446289,-0.3256114423274994,381846124669523,POCKET
449,-2.1930887699127197,9.452308654785156,-0.4692635238170624,381846144749697,POCKET
450,-2.164358377456665,9.442731857299805,-0.4118026793003082,381846164829872,POCKET
451,-2.1547815799713135,9.404424667358398,-0.47884035110473633,381846184910047,POCKET
452,-2.1547815799713135,9.404424667358398,-0.4692635238170624,381846204990221,POCKET
453,-2.164358377456665,9.404424667358398,-0.40222588181495667,381846225070396,POCKET
454,-2.231395959854126,9.366117477416992,-0.3926490843296051,381846245120054,POCKET
455,-2.1547815799713135,9.385271072387695,-0.47884035110473633,381846265200229,POCKET
456,-2.2026655673980713,9.346963882446289,-0.4596867263317108,381846285280404,POCKET
457,-2.2026655673980713,9.423578262329102,-0.3447650372982025,381846305360579,POCKET
458,-2.231395959854126,9.394847869873047,-0.40222588181495667,381846325440753,POCKET
459,-2.1930887699127197,9.299078941345215,-0.4405331015586853,381846345520928,POCKET
460,-2.2026655673980713,9.433155059814453,-0.40222588181495667,381846365601103,POCKET
461,-2.2218191623687744,9.433155059814453,-0.4118026793003082,381846385681278,POCKET
462,-2.1930887699127197,9.394847869873047,-0.4405331015586853,381846405730935,POCKET
463,-2.1930887699127197,9.41400146484375,-0.4118026793003082,381846425811110,POCKET
464,-2.1739351749420166,9.41400146484375,-0.40222588181495667,381846445891285,POCKET
465,-2.145204782485962,9.366117477416992,-0.45010992884635925,381846466001977,POCKET
466,-2.0685901641845703,9.442731857299805,-0.4596867263317108,381846486051635,POCKET
467,-2.145204782485962,9.385271072387695,-0.4118026793003082,381846506131809,POCKET
468,-2.1739351749420166,9.385271072387695,-0.4405331015586853,381846526211984,POCKET
469,-2.126051187515259,9.41400146484375,-0.3926490843296051,381846546292159,POCKET
470,-2.1547815799713135,9.375694274902344,-0.4118026793003082,381846566372334,POCKET
471,-2.2218191623687744,9.41400146484375,-0.4405331015586853,381846586452509,POCKET
472,-2.1930887699127197,9.394847869873047,-0.38307225704193115,381846606532683,POCKET
473,-2.164358377456665,9.461885452270508,-0.45010992884635925,381846626612858,POCKET
474,-2.1164743900299072,9.423578262329102,-0.43095630407333374,381846646693033,POCKET
475,-2.2026655673980713,9.394847869873047,-0.3734954595565796,381846666773208,POCKET
476,-2.1739351749420166,9.375694274902344,-0.47884035110473633,381846686853382,POCKET
477,-2.1739351749420166,9.308655738830566,-0.4213795065879822,381846706933557,POCKET
478,-2.250549554824829,9.394847869873047,-0.3926490843296051,381846726983215,POCKET
479,-2.1930887699127197,9.461885452270508,-0.4692635238170624,381846747063390,POCKET
480,-2.1930887699127197,9.41400146484375,-0.43095630407333374,381846767143565,POCKET
481,-2.2026655673980713,9.41400146484375,-0.4596867263317108,381846787223740,POCKET
482,-2.1547815799713135,9.423578262329102,-0.4596867263317108,381846807303914,POCKET
483,-2.145204782485962,9.433155059814453,-0.43095630407333374,381846827384089,POCKET
484,-2.1164743900299072,9.35654067993164,-0.4213795065879822,381846847464264,POCKET
485,-2.183511972427368,9.385271072387695,-0.4596867263317108,381846867544438,POCKET
486,-2.2409727573394775,9.452308654785156,-0.4213795065879822,381846887624614,POCKET
487,-2.126051187515259,9.35654067993164,-0.4692635238170624,381846907704788,POCKET
488,-2.2697031497955322,9.433155059814453,-0.45010992884635925,381846927784963,POCKET
489,-2.2218191623687744,9.35654067993164,-0.45010992884635925,381846947865138,POCKET
490,-2.2218191623687744,9.366117477416992,-0.3926490843296051,381846967945312,POCKET
491,-2.183511972427368,9.337387084960938,-0.3734954595565796,381846988025488,POCKET
492,-2.212242364883423,9.394847869873047,-0.45010992884635925,381847008105662,POCKET
493,-2.183511972427368,9.41400146484375,-0.40222588181495667,381847028155320,POCKET
494,-2.078166961669922,9.385271072387695,-0.3926490843296051,381847048235495,POCKET
495,-2.0877439975738525,9.346963882446289,-0.38307225704193115,381847068315670,POCKET
496,-2.1547815799713135,9.404424667358398,-0.4118026793003082,381847088395844,POCKET
497,-2.164358377456665,9.442731857299805,-0.363918662071228,381847108476019,POCKET
498,-2.164358377456665,9.481039047241211,-0.40222588181495667,381847128556194,POCKET
499,-2.164358377456665,9.394847869873047,-0.40222588181495667,381847148636368,POCKET
500,-2.1739351749420166,9.385271072387695,-0.40222588181495667,381847168716544,POCKET
501,-2.164358377456665,9.433155059814453,-0.3447650372982025,381847188796718,POCKET
502,-2.1739351749420166,9.433155059814453,-0.4118026793003082,381847208876893,POCKET
503,-2.183511972427368,9.452308654785156,-0.3256114423274994,381847228957068,POCKET
504,-2.1356279850006104,9.385271072387695,-0.35434186458587646,381847249006726,POCKET
505,-2.145204782485962,9.385271072387695,-0.3447650372982025,381847269086900,POCKET
506,-2.1930887699127197,9.433155059814453,-0.4405331015586853,381847289167076,POCKET
507,-2.1739351749420166,9.346963882446289,-0.47884035110473633,381847309247250,POCKET
508,-2.2026655673980713,9.366117477416992,-0.4405331015586853,381847329327424,POCKET
509,-2.1930887699127197,9.433155059814453,-0.4213795065879822,381847349407600,POCKET
510,-2.145204782485962,9.41400146484375,-0.3734954595565796,381847369487774,POCKET
511,-2.1356279850006104,9.375694274902344,-0.40222588181495667,381847389567950,POCKET
512,-2.183511972427368,9.433155059814453,-0.4213795065879822,381847409648124,POCKET
513,-2.1356279850006104,9.366117477416992,-0.4118026793003082,381847429728298,POCKET
514,-2.1739351749420166,9.366117477416992,-0.4884171485900879,381847449808474,POCKET
515,-2.164358377456665,9.366117477416992,-0.35434186458587646,381847469888648,POCKET
516,-2.1164743900299072,9.394847869873047,-0.363918662071228,381847489968823,POCKET
517,-2.1739351749420166,9.452308654785156,-0.4596867263317108,381847510048998,POCKET
518,-2.2026655673980713,9.385271072387695,-0.363918662071228,381847530129172,POCKET
519,-2.164358377456665,9.366117477416992,-0.4596867263317108,381847550209348,POCKET
520,-2.145204782485962,9.404424667358398,-0.45010992884635925,381847570289522,POCKET
521,-2.2026655673980713,9.41400146484375,-0.4213795065879822,381847590369697,POCKET
522,-2.2218191623687744,9.394847869873047,-0.3734954595565796,381847610419354,POCKET
523,-2.212242364883423,9.375694274902344,-0.3926490843296051,381847630530046,POCKET
524,-2.2218191623687744,9.394847869873047,-0.33518823981285095,381847650610222,POCKET
525,-2.250549554824829,9.385271072387695,-0.45010992884635925,381847670690396,POCKET
526,-2.183511972427368,9.327810287475586,-0.47884035110473633,381847690770571,POCKET
527,-2.2026655673980713,9.375694274902344,-0.43095630407333374,381847710850746,POCKET
528,-2.1739351749420166,9.375694274902344,-0.4405331015586853,381847730930920,POCKET
529,-2.164358377456665,9.442731857299805,-0.47884035110473633,381847751011095,POCKET
530,-2.1068975925445557,9.423578262329102,-0.43095630407333374,381847771091270,POCKET
531,-2.1930887699127197,9.366117477416992,-0.49799394607543945,381847791140928,POCKET
532,-2.1164743900299072,9.442731857299805,-0.4692635238170624,381847811221102,POCKET
533,-2.097320795059204,9.375694274902344,-0.49799394607543945,381847831301278,POCKET
534,-2.1068975925445557,9.433155059814453,-0.3447650372982025,381847851381452,POCKET
535,-2.1356279850006104,9.452308654785156,-0.3734954595565796,381847871461627,POCKET
536,-2.0685901641845703,9.47146224975586,-0.3734954595565796,381847891541802,POCKET
537,-2.078166961669922,9.346963882446289,-0.3734954595565796,381847911621977,POCKET
538,-2.126051187515259,9.452308654785156,-0.35434186458587646,381847931702151,POCKET
539,-2.1739351749420166,9.41400146484375,-0.363918662071228,381847951782326,POCKET
540,-2.1356279850006104,9.35654067993164,-0.38307225704193115,381847971862501,POCKET
541,-2.2409727573394775,9.366117477416992,-0.3447650372982025,381847991942676,POCKET
542,-2.1930887699127197,9.375694274902344,-0.40222588181495667,381848012022851,POCKET
543,-2.1547815799713135,9.41400146484375,-0.3734954595565796,381848032072508,POCKET
544,-2.1164743900299072,9.394847869873047,-0.3734954595565796,381848052152683,POCKET
545,-2.1930887699127197,9.433155059814453,-0.33518823981285095,381848072232858,POCKET
546,-2.1547815799713135,9.41400146484375,-0.2777273952960968,381848092313033,POCKET
547,-2.2026655673980713,9.375694274902344,-0.3734954595565796,381848112393208,POCKET
548,-2.1164743900299072,9.442731857299805,-0.33518823981285095,381848132473382,POCKET
549,-2.1164743900299072,9.404424667358398,-0.3064578175544739,381848152553557,POCKET
550,-2.164358377456665,9.442731857299805,-0.3447650372982025,381848172633732,POCKET
551,-2.164358377456665,9.433155059814453,-0.3256114423274994,381848192713907,POCKET
552,-2.1164743900299072,9.423578262329102,-0.3064578175544739,381848212794081,POCKET
553,-2.078166961669922,9.423578262329102,-0.31603461503982544,381848232874256,POCKET
554,-2.097320795059204,9.461885452270508,-0.35434186458587646,381848252954431,POCKET
555,-2.1164743900299072,9.41400146484375,-0.3734954595565796,381848273004089,POCKET
556,-2.1164743900299072,9.433155059814453,-0.28730419278144836,381848293084264,POCKET
557,-2.0590133666992188,9.423578262329102,-0.4118026793003082,381848313164438,POCKET
558,-2.1164743900299072,9.375694274902344,-0.2968810200691223,381848333244613,POCKET
559,-2.126051187515259,9.404424667358398,-0.28730419278144836,381848353324788,POCKET
560,-2.0685901641845703,9.366117477416992,-0.31603461503982544,381848373404963,POCKET
561,-2.1164743900299072,9.423578262329102,-0.28730419278144836,381848393485137,POCKET
562,-2.1164743900299072,9.442731857299805,-0.3064578175544739,381848413565313,POCKET
563,-2.0877439975738525,9.404424667358398,-0.26815059781074524,381848433645487,POCKET
564,-2.078166961669922,9.394847869873047,-0.28730419278144836,381848453725662,POCKET
565,-2.0877439975738525,9.423578262329102,-0.2777273952960968,381848473805837,POCKET
566,-2.097320795059204,9.423578262329102,-0.28730419278144836,381848493886011,POCKET
567,-2.1068975925445557,9.423578262329102,-0.35434186458587646,381848513966187,POCKET
568,-2.1164743900299072,9.394847869873047,-0.26815059781074524,381848534046361,POCKET
569,-2.078166961669922,9.442731857299805,-0.3064578175544739,381848554126535,POCKET
570,-2.1739351749420166,9.404424667358398,-0.363918662071228,381848574206711,POCKET
571,-2.1068975925445557,9.423578262329102,-0.3447650372982025,381848594286885,POCKET
572,-2.0685901641845703,9.47146224975586,-0.28730419278144836,381848614336543,POCKET
573,-2.1068975925445557,9.461885452270508,-0.2968810200691223,381848634416718,POCKET
574,-2.0685901641845703,9.433155059814453,-0.28730419278144836,381848654496893,POCKET
575,-2.078166961669922,9.452308654785156,-0.3064578175544739,381848674577067,POCKET
576,-2.097320795059204,9.481039047241211,-0.33518823981285095,381848694657243,POCKET
577,-2.1068975925445557,9.452308654785156,-0.3064578175544739,381848714737417,POCKET
578,-2.030282974243164,9.346963882446289,-0.3064578175544739,381848734817592,POCKET
579,-2.1356279850006104,9.394847869873047,-0.3734954595565796,381848754897767,POCKET
580,-2.0877439975738525,9.433155059814453,-0.2968810200691223,381848774977941,POCKET
581,-2.0877439975738525,9.41400146484375,-0.2968810200691223,381848795058117,POCKET
582,-2.078166961669922,9.452308654785156,-0.31603461503982544,381848815138291,POCKET
583,-2.078166961669922,9.404424667358398,-0.363918662071228,381848835187949,POCKET
584,-2.164358377456665,9.461885452270508,-0.3064578175544739,381848855268123,POCKET
585,-2.1164743900299072,9.385271072387695,-0.33518823981285095,381848875348299,POCKET
586,-2.1356279850006104,9.41400146484375,-0.363918662071228,381848895428473,POCKET
587,-2.1356279850006104,9.404424667358398,-0.363918662071228,381848915508649,POCKET
588,-2.097320795059204,9.433155059814453,-0.2585737705230713,381848935588823,POCKET
589,-2.1356279850006104,9.47146224975586,-0.2777273952960968,381848955668997,POCKET
590,-2.1547815799713135,9.433155059814453,-0.2968810200691223,381848975749173,POCKET
591,-2.1356279850006104,9.41400146484375,-0.2585737705230713,381848995829347,POCKET
592,-2.1547815799713135,9.404424667358398,-0.3447650372982025,381849015909522,POCKET
593,-2.1547815799713135,9.461885452270508,-0.2585737705230713,381849035959179,POCKET
594,-2.0685901641845703,9.47146224975586,-0.33518823981285095,381849056039355,POCKET
595,-2.1356279850006104,9.385271072387695,-0.35434186458587646,381849076119529,POCKET
596,-2.126051187515259,9.442731857299805,-0.31603461503982544,381849096199705,POCKET
597,-2.078166961669922,9.47146224975586,-0.2777273952960968,381849116279879,POCKET
598,-2.078166961669922,9.385271072387695,-0.26815059781074524,381849136360053,POCKET
599,-2.145204782485962,9.423578262329102,-0.3447650372982025,381849156440229,POCKET
600,-2.126051187515259,9.433155059814453,-0.40222588181495667,381849176520403,POCKET
601,-2.0877439975738525,9.442731857299805,-0.33518823981285095,381849196600578,POCKET
602,-2.1547815799713135,9.433155059814453,-0.2585737705230713,381849216680753,POCKET
603,-2.1547815799713135,9.375694274902344,-0.28730419278144836,381849236760927,POCKET
604,-2.0685901641845703,9.461885452270508,-0.2968810200691223,381849256841103,POCKET
605,-2.1164743900299072,9.433155059814453,-0.2968810200691223,381849276890761,POCKET
606,-2.1068975925445557,9.423578262329102,-0.3256114423274994,381849296970935,POCKET
607,-2.0685901641845703,9.404424667358398,-0.3256114423274994,381849317051109,POCKET
608,-2.078166961669922,9.404424667358398,-0.2968810200691223,381849337131285,POCKET
609,-2.0590133666992188,9.433155059814453,-0.3064578175544739,381849357211459,POCKET
610,-2.097320795059204,9.404424667358398,-0.33518823981285095,381849377291635,POCKET
611,-2.097320795059204,9.47146224975586,-0.38307225704193115,381849397371809,POCKET
612,-2.011129379272461,9.442731857299805,-0.31603461503982544,381849417451984,POCKET
613,-2.1164743900299072,9.481039047241211,-0.31603461503982544,381849437532159,POCKET
614,-2.126051187515259,9.346963882446289,-0.2968810200691223,381849457581817,POCKET
615,-2.0877439975738525,9.404424667358398,-0.22026655077934265,381849477661991,POCKET
616,-2.1356279850006104,9.47146224975586,-0.2585737705230713,381849497742166,POCKET
617,-2.1164743900299072,9.452308654785156,-0.2777273952960968,381849517822341,POCKET
618,-2.164358377456665,9.433155059814453,-0.3256114423274994,381849537902515,POCKET
619,-2.1068975925445557,9.385271072387695,-0.31603461503982544,381849557982691,POCKET
620,-2.145204782485962,9.423578262329102,-0.28730419278144836,381849578062865,POCKET
621,-2.1547815799713135,9.375694274902344,-0.2777273952960968,381849598143040,POCKET
622,-2.1356279850006104,9.461885452270508,-0.26815059781074524,381849618223215,POCKET
623,-2.1068975925445557,9.442731857299805,-0.33518823981285095,381849638303389,POCKET
624,-2.1739351749420166,9.442731857299805,-0.3064578175544739,381849658383564,POCKET
625,-2.097320795059204,9.442731857299805,-0.24899697303771973,381849678463739,POCKET
626,-2.1164743900299072,9.41400146484375,-0.2106897532939911,381849698543914,POCKET
627,-2.1547815799713135,9.404424667358398,-0.26815059781074524,381849718624089,POCKET
628,-2.0685901641845703,9.394847869873047,-0.2968810200691223,381849738673747,POCKET
629,-2.0685901641845703,9.442731857299805,-0.33518823981285095,381849758753921,POCKET
630,-2.0207061767578125,9.461885452270508,-0.24899697303771973,381849778834096,POCKET
631,-2.126051187515259,9.375694274902344,-0.23942017555236816,381849798914271,POCKET
632,-2.1356279850006104,9.442731857299805,-0.2968810200691223,381849818994445,POCKET
633,-2.1164743900299072,9.41400146484375,-0.33518823981285095,381849839074620,POCKET
634,-2.0877439975738525,9.452308654785156,-0.3734954595565796,381849859154795,POCKET
635,-2.1164743900299072,9.41400146484375,-0.33518823981285095,381849879234970,POCKET
636,-2.1068975925445557,9.385271072387695,-0.2968810200691223,381849899315145,POCKET
637,-2.1164743900299072,9.461885452270508,-0.31603461503982544,381849919395320,POCKET
638,-2.078166961669922,9.481039047241211,-0.2968810200691223,381849939475494,POCKET
639,-2.1164743900299072,9.404424667358398,-0.31603461503982544,381849959555669,POCKET
640,-2.1356279850006104,9.41400146484375,-0.26815059781074524,381849979635844,POCKET
641,-2.1164743900299072,9.41400146484375,-0.2777273952960968,381849999716019,POCKET
642,-2.049436569213867,9.423578262329102,-0.2585737705230713,381850019796194,POCKET
643,-2.078166961669922,9.442731857299805,-0.3447650372982025,381850039876368,POCKET
644,-2.097320795059204,9.423578262329102,-0.2585737705230713,381850059926026,POCKET
645,-2.0877439975738525,9.385271072387695,-0.24899697303771973,381850080006201,POCKET
646,-2.126051187515259,9.442731857299805,-0.38307225704193115,381850100086376,POCKET
647,-2.078166961669922,9.366117477416992,-0.2968810200691223,381850120166550,POCKET
648,-2.1164743900299072,9.442731857299805,-0.2777273952960968,381850140246725,POCKET
649,-2.1068975925445557,9.461885452270508,-0.2968810200691223,381850160326900,POCKET
650,-2.0877439975738525,9.385271072387695,-0.28730419278144836,381850180407075,POCKET
651,-2.1164743900299072,9.366117477416992,-0.3256114423274994,381850200487250,POCKET
652,-2.1068975925445557,9.423578262329102,-0.31603461503982544,381850220567424,POCKET
653,-2.097320795059204,9.41400146484375,-0.3734954595565796,381850240617082,POCKET
654,-2.126051187515259,9.461885452270508,-0.2777273952960968,381850260666740,POCKET
655,-2.0877439975738525,9.461885452270508,-0.2585737705230713,381850280746915,POCKET
656,-2.097320795059204,9.346963882446289,-0.31603461503982544,381850300827090,POCKET
657,-2.078166961669922,9.452308654785156,-0.33518823981285095,381850320907264,POCKET
658,-2.0877439975738525,9.452308654785156,-0.33518823981285095,381850340987439,POCKET
659,-2.1068975925445557,9.375694274902344,-0.3064578175544739,381850361067614,POCKET
660,-2.0877439975738525,9.404424667358398,-0.38307225704193115,381850381147789,POCKET
661,-2.0685901641845703,9.394847869873047,-0.2968810200691223,381850401227964,POCKET
662,-2.1164743900299072,9.461885452270508,-0.33518823981285095,381850421277621,POCKET
663,-2.0877439975738525,9.433155059814453,-0.3256114423274994,381850441357796,POCKET
664,-2.126051187515259,9.375694274902344,-0.33518823981285095,381850461437971,POCKET
665,-2.2026655673980713,9.404424667358398,-0.33518823981285095,381850481518146,POCKET
666,-2.0877439975738525,9.461885452270508,-0.3256114423274994,381850501598320,POCKET
667,-2.1547815799713135,9.433155059814453,-0.31603461503982544,381850521678495,POCKET
668,-2.049436569213867,9.375694274902344,-0.33518823981285095,381850541758670,POCKET
669,-2.049436569213867,9.433155059814453,-0.28730419278144836,381850561838845,POCKET
670,-2.1164743900299072,9.423578262329102,-0.33518823981285095,381850581919020,POCKET
671,-2.0590133666992188,9.423578262329102,-0.2968810200691223,381850601999194,POCKET
672,-2.0877439975738525,9.404424667358398,-0.2777273952960968,381850622048852,POCKET
673,-2.1164743900299072,9.47146224975586,-0.2585737705230713,381850642129027,POCKET
674,-2.1356279850006104,9.47146224975586,-0.3256114423274994,381850662209202,POCKET
675,-2.030282974243164,9.41400146484375,-0.33518823981285095,381850682289376,POCKET
676,-2.0398597717285156,9.404424667358398,-0.33518823981285095,381850702369551,POCKET
677,-2.1068975925445557,9.385271072387695,-0.2777273952960968,381850722449726,POCKET
678,-2.0877439975738525,9.423578262329102,-0.3256114423274994,381850742529901,POCKET
679,-2.078166961669922,9.385271072387695,-0.3447650372982025,381850762610076,POCKET
680,-2.1068975925445557,9.35654067993164,-0.28730419278144836,381850782690250,POCKET
681,-2.0877439975738525,9.461885452270508,-0.3256114423274994,381850802770426,POCKET
682,-2.1356279850006104,9.423578262329102,-0.31603461503982544,381850822820083,POCKET
683,-2.049436569213867,9.423578262329102,-0.2968810200691223,381850842900258,POCKET
684,-2.078166961669922,9.452308654785156,-0.3064578175544739,381850862980432,POCKET
685,-2.126051187515259,9.385271072387695,-0.33518823981285095,381850883060608,POCKET
686,-2.0877439975738525,9.47146224975586,-0.2968810200691223,381850903140782,POCKET
687,-2.145204782485962,9.461885452270508,-0.2968810200691223,381850923220957,POCKET
688,-2.1068975925445557,9.423578262329102,-0.31603461503982544,381850943301132,POCKET
689,-2.0398597717285156,9.490615844726562,-0.3734954595565796,381850963381306,POCKET
690,-2.1356279850006104,9.442731857299805,-0.31603461503982544,381850983461482,POCKET
691,-2.1356279850006104,9.461885452270508,-0.3447650372982025,381851003511139,POCKET
692,-2.126051187515259,9.423578262329102,-0.2777273952960968,381851023591314,POCKET
693,-2.0590133666992188,9.385271072387695,-0.3064578175544739,381851043671489,POCKET
694,-2.0207061767578125,9.394847869873047,-0.26815059781074524,381851063751664,POCKET
695,-2.097320795059204,9.452308654785156,-0.2298433631658554,381851083831838,POCKET
696,-2.078166961669922,9.47146224975586,-0.33518823981285095,381851103912013,POCKET
697,-2.1068975925445557,9.433155059814453,-0.363918662071228,381851123992188,POCKET
698,-2.1068975925445557,9.509769439697266,-0.3256114423274994,381851144072362,POCKET
699,-2.097320795059204,9.481039047241211,-0.3256114423274994,381851164152538,POCKET
700,-2.078166961669922,9.366117477416992,-0.31603461503982544,381851184232712,POCKET
701,-2.0015525817871094,9.442731857299805,-0.24899697303771973,381851204282370,POCKET
702,-2.1164743900299072,9.442731857299805,-0.363918662071228,381851224362545,POCKET
703,-2.1356279850006104,9.366117477416992,-0.3256114423274994,381851244442720,POCKET
704,-2.145204782485962,9.452308654785156,-0.26815059781074524,381851264522894,POCKET
705,-2.183511972427368,9.423578262329102,-0.26815059781074524,381851284603070,POCKET
706,-2.0877439975738525,9.423578262329102,-0.35434186458587646,381851304683244,POCKET
707,-2.097320795059204,9.452308654785156,-0.3256114423274994,381851324763418,POCKET
708,-2.126051187515259,9.404424667358398,-0.3447650372982025,381851344843594,POCKET
709,-2.145204782485962,9.394847869873047,-0.3734954595565796,381851364923768,POCKET
710,-2.097320795059204,9.41400146484375,-0.2585737705230713,381851384973426,POCKET
711,-2.1547815799713135,9.404424667358398,-0.2777273952960968,381851405053601,POCKET
712,-2.1547815799713135,9.47146224975586,-0.26815059781074524,381851425133776,POCKET
713,-2.049436569213867,9.461885452270508,-0.26815059781074524,381851445213950,POCKET
714,-2.126051187515259,9.452308654785156,-0.3064578175544739,381851465294126,POCKET
715,-2.0590133666992188,9.35654067993164,-0.2585737705230713,381851485374300,POCKET
716,-2.126051187515259,9.404424667358398,-0.3447650372982025,381851505454474,POCKET
717,-2.1547815799713135,9.442731857299805,-0.3064578175544739,381851525534650,POCKET
718,-2.097320795059204,9.433155059814453,-0.28730419278144836,381851545614824,POCKET
719,-2.0877439975738525,9.394847869873047,-0.2968810200691223,381851565664482,POCKET
720,-2.0685901641845703,9.394847869873047,-0.33518823981285095,381851585744657,POCKET
721,-2.078166961669922,9.452308654785156,-0.31603461503982544,381851605824832,POCKET
722,-2.0685901641845703,9.394847869873047,-0.2777273952960968,381851625905006,POCKET
723,-2.0877439975738525,9.423578262329102,-0.2968810200691223,381851645985182,POCKET
724,-2.126051187515259,9.442731857299805,-0.2777273952960968,381851666065356,POCKET
725,-2.1547815799713135,9.35654067993164,-0.23942017555236816,381851686145531,POCKET
726,-2.1164743900299072,9.423578262329102,-0.3064578175544739,381851706225706,POCKET
727,-2.1068975925445557,9.461885452270508,-0.31603461503982544,381851726305880,POCKET
728,-2.145204782485962,9.461885452270508,-0.35434186458587646,381851746386056,POCKET
729,-2.145204782485962,9.337387084960938,-0.2585737705230713,381851766466230,POCKET
730,-2.1164743900299072,9.385271072387695,-0.24899697303771973,381851786546405,POCKET
731,-2.126051187515259,9.423578262329102,-0.2968810200691223,381851806626580,POCKET
732,-2.126051187515259,9.423578262329102,-0.3447650372982025,381851826706754,POCKET
733,-2.126051187515259,9.394847869873047,-0.3256114423274994,381851846786930,POCKET
734,-2.0685901641845703,9.442731857299805,-0.3064578175544739,381851866836588,POCKET
735,-2.1739351749420166,9.442731857299805,-0.31603461503982544,381851886916762,POCKET
736,-2.1547815799713135,9.385271072387695,-0.3064578175544739,381851906996936,POCKET
737,-2.1547815799713135,9.442731857299805,-0.3256114423274994,381851927077112,POCKET
738,-2.1068975925445557,9.433155059814453,-0.2968810200691223,381851947157286,POCKET
739,-2.097320795059204,9.433155059814453,-0.3256114423274994,381851967237461,POCKET
740,-2.1164743900299072,9.452308654785156,-0.31603461503982544,381851987317636,POCKET
741,-2.183511972427368,9.442731857299805,-0.28730419278144836,381852007397810,POCKET
742,-2.126051187515259,9.404424667358398,-0.33518823981285095,381852027477986,POCKET
743,-2.078166961669922,9.481039047241211,-0.3447650372982025,381852047558160,POCKET
744,-2.078166961669922,9.41400146484375,-0.2968810200691223,381852067638335,POCKET
745,-2.1164743900299072,9.452308654785156,-0.3256114423274994,381852087718510,POCKET
746,-2.0877439975738525,9.404424667358398,-0.3256114423274994,381852107768168,POCKET
747,-2.030282974243164,9.41400146484375,-0.28730419278144836,381852127848342,POCKET
748,-2.1356279850006104,9.423578262329102,-0.3734954595565796,381852147928517,POCKET
749,-2.1068975925445557,9.394847869873047,-0.26815059781074524,381852168008692,POCKET
750,-2.0877439975738525,9.385271072387695,-0.31603461503982544,381852188088866,POCKET
751,-2.126051187515259,9.452308654785156,-0.28730419278144836,381852208169042,POCKET
752,-2.097320795059204,9.452308654785156,-0.35434186458587646,381852228249216,POCKET
753,-2.183511972427368,9.41400146484375,-0.33518823981285095,381852248329391,POCKET
754,-2.030282974243164,9.433155059814453,-0.24899697303771973,381852268409566,POCKET
755,-2.078166961669922,9.433155059814453,-0.26815059781074524,381852288489741,POCKET
756,-2.126051187515259,9.442731857299805,-0.23942017555236816,381852308569916,POCKET
757,-2.0877439975738525,9.385271072387695,-0.31603461503982544,381852328650090,POCKET
758,-2.0207061767578125,9.433155059814453,-0.24899697303771973,381852348730265,POCKET
759,-2.0207061767578125,9.423578262329102,-0.26815059781074524,381852368810440,POCKET
760,-2.097320795059204,9.41400146484375,-0.3064578175544739,381852388890615,POCKET
761,-2.126051187515259,9.423578262329102,-0.3064578175544739,381852408970789,POCKET
762,-2.1068975925445557,9.375694274902344,-0.2968810200691223,381852429050964,POCKET
763,-2.1068975925445557,9.385271072387695,-0.28730419278144836,381852449131139,POCKET
764,-2.1547815799713135,9.442731857299805,-0.3064578175544739,381852469211314,POCKET
765,-2.078166961669922,9.433155059814453,-0.28730419278144836,381852489291489,POCKET
766,-2.097320795059204,9.442731857299805,-0.31603461503982544,381852509371663,POCKET
767,-2.1739351749420166,9.442731857299805,-0.31603461503982544,381852529451838,POCKET
768,-2.126051187515259,9.423578262329102,-0.2968810200691223,381852549532013,POCKET
769,-2.1356279850006104,9.41400146484375,-0.23942017555236816,381852569612187,POCKET
770,-2.126051187515259,9.385271072387695,-0.28730419278144836,381852589692363,POCKET
771,-2.126051187515259,9.442731857299805,-0.2968810200691223,381852609772537,POCKET
772,-2.1739351749420166,9.452308654785156,-0.2777273952960968,381852629822195,POCKET
773,-2.1547815799713135,9.404424667358398,-0.24899697303771973,381852649902370,POCKET
774,-2.1547815799713135,9.481039047241211,-0.2298433631658554,381852669982545,POCKET
775,-2.1356279850006104,9.461885452270508,-0.31603461503982544,381852690062719,POCKET
776,-2.164358377456665,9.327810287475586,-0.2298433631658554,381852710142894,POCKET
777,-2.2409727573394775,9.35654067993164,-0.2585737705230713,381852730223069,POCKET
778,-2.250549554824829,9.394847869873047,-0.22026655077934265,381852750333761,POCKET
779,-2.250549554824829,9.375694274902344,-0.181959331035614,381852770413935,POCKET
780,-2.2026655673980713,9.433155059814453,-0.26815059781074524,381852790494111,POCKET
781,-2.212242364883423,9.366117477416992,-0.3447650372982025,381852810574285,POCKET
782,-2.2218191623687744,9.404424667358398,-0.33518823981285095,381852830654459,POCKET
783,-2.097320795059204,9.385271072387695,-0.28730419278144836,381852850734635,POCKET
784,-2.049436569213867,9.461885452270508,-0.38307225704193115,381852870814809,POCKET
785,-2.078166961669922,9.404424667358398,-0.28730419278144836,381852890894985,POCKET
786,-2.011129379272461,9.375694274902344,-0.4405331015586853,381852910975159,POCKET
787,-2.0015525817871094,9.375694274902344,-0.47884035110473633,381852931055334,POCKET
788,-1.9823989868164062,9.41400146484375,-0.3926490843296051,381852951135509,POCKET
789,-1.9919757843017578,9.452308654785156,-0.4213795065879822,381852971215683,POCKET
790,-1.867477297782898,9.404424667358398,-0.38307225704193115,381852991295858,POCKET
791,-1.800439715385437,9.509769439697266,-0.35434186458587646,381853011376033,POCKET
792,-1.8195933103561401,9.53849983215332,-0.3447650372982025,381853031486725,POCKET
793,-1.944091796875,9.442731857299805,-0.35434186458587646,381853051566900,POCKET
794,-1.9632453918457031,9.509769439697266,-0.26815059781074524,381853071647074,POCKET
795,-2.0590133666992188,9.452308654785156,-0.2106897532939911,381853091727249,POCKET
796,-2.1356279850006104,9.423578262329102,-0.26815059781074524,381853111807424,POCKET
797,-2.1739351749420166,9.404424667358398,-0.14365209639072418,381853131887599,POCKET
798,-2.1930887699127197,9.41400146484375,-0.19153612852096558,381853151967774,POCKET
799,-2.1164743900299072,9.452308654785156,-0.2106897532939911,381853172047948,POCKET
800,-2.126051187515259,9.53849983215332,-0.10534487664699554,381853192128123,POCKET
801,-2.030282974243164,9.481039047241211,-0.1149216815829277,381853212208298,POCKET
802,-2.049436569213867,9.452308654785156,-0.12449848651885986,381853232288472,POCKET
803,-2.011129379272461,9.490615844726562,-0.07661445438861847,381853252368648,POCKET
804,-1.9632453918457031,9.452308654785156,-0.09576806426048279,381853272448822,POCKET
805,-1.522712230682373,8.868123054504395,1.580173134803772,381853292528997,POCKET
806,-1.9536685943603516,9.500192642211914,-0.028730420395731926,381853312639688,POCKET
807,-2.1547815799713135,9.59596061706543,-0.9481038451194763,381853332719864,POCKET
808,-1.886630892753601,9.394847869873047,0.14365209639072418,381853352800038,POCKET
809,-1.9345149993896484,9.528923034667969,-0.09576806426048279,381853372880214,POCKET
810,-2.212242364883423,9.433155059814453,-0.13407529890537262,381853392960388,POCKET
811,-2.3080103397369385,9.47146224975586,-0.009576806798577309,381853413040562,POCKET
812,-2.365471363067627,9.366117477416992,-0.363918662071228,381853433120738,POCKET
813,-2.4899697303771973,9.260771751403809,-0.24899697303771973,381853453200912,POCKET
814,-2.1547815799713135,9.433155059814453,-0.3064578175544739,381853473281087,POCKET
815,-2.4420857429504395,9.404424667358398,-0.363918662071228,381853493361262,POCKET
816,-2.3271639347076416,9.279925346374512,-0.3447650372982025,381853513410920,POCKET
817,-2.3080103397369385,8.791508674621582,-0.6224924325942993,381853533491094,POCKET
818,-2.183511972427368,9.385271072387695,-0.3256114423274994,381853553571270,POCKET
819,-2.2601263523101807,9.720458984375,-0.26815059781074524,381853573651444,POCKET
820,-1.9153614044189453,9.548076629638672,-0.5267243981361389,381853593731619,POCKET
821,-2.0685901641845703,9.500192642211914,-0.4884171485900879,381853613811794,POCKET
822,-2.2409727573394775,9.366117477416992,-0.019153613597154617,381853633891968,POCKET
823,-2.2026655673980713,9.308655738830566,-0.3064578175544739,381853653972143,POCKET
824,-2.0685901641845703,9.47146224975586,-0.7086837291717529,381853674052318,POCKET
825,-1.8483237028121948,10.141838073730469,-0.6320692300796509,381853694132493,POCKET
826,-1.8100165128707886,10.074800491333008,-0.2968810200691223,381853714212668,POCKET
827,-2.0877439975738525,9.509769439697266,-0.507570743560791,381853734292842,POCKET
828,-1.742978811264038,9.586383819580078,-0.3926490843296051,381853754373017,POCKET
829,-1.7334020137786865,9.739612579345703,-0.09576806426048279,381853774453192,POCKET
830,-2.6431987285614014,9.586383819580078,0.028730420395731926,381853794533367,POCKET
831,-2.4899697303771973,10.20887565612793,-0.2777273952960968,381853814613542,POCKET
832,-2.691082715988159,10.247182846069336,-0.17238251864910126,381853834663199,POCKET
833,-2.4612393379211426,10.295066833496094,-0.31603461503982544,381853854743374,POCKET
834,-2.6240451335906982,10.304644584655762,0.038307227194309235,381853874823549,POCKET
835,-2.75812029838562,10.524910926818848,-0.7661445140838623,381853894903724,POCKET
836,-2.403778553009033,10.946290016174316,0.009576806798577309,381853914983898,POCKET
837,-2.4420857429504395,10.5344877243042,0.3734954595565796,381853935064073,POCKET
838,-2.3750481605529785,10.170568466186523,0.4692635238170624,381853955144248,POCKET
839,-2.298433542251587,10.371682167053223,-0.3734954595565796,381853975224423,POCKET
840,-2.5091233253479004,10.716446876525879,-0.5554547905921936,381853995304598,POCKET
841,-2.671929121017456,11.645397186279297,-0.22026655077934265,381854015384772,OTHER
842,-2.873042106628418,11.712434768676758,-0.8044517636299133,381854035464947,OTHER
843,-2.9017724990844727,11.654973983764648,-0.6991068720817566,381854055545122,OTHER
844,-2.6815059185028076,11.35809326171875,-0.019153613597154617,381854075625297,OTHER
845,-2.6240451335906982,11.463438034057617,1.158793568611145,381854095705471,OTHER
846,-2.8155810832977295,11.013327598571777,0.05746084079146385,381854115785646,OTHER
847,-2.7102363109588623,10.591948509216309,-1.647210717201233,381854135865821,OTHER
848,-3.179499864578247,10.888829231262207,-1.2449848651885986,381854155915479,OTHER
849,-3.294421434402466,10.362105369567871,-2.011129379272461,381854175995654,OTHER
850,-2.911349296569824,10.381258964538574,-0.05746084079146385,381854196075829,POCKET
851,-2.604891538619995,10.237606048583984,1.8100165128707886,381854216156003,POCKET
852,-4.01268196105957,8.887276649475098,-0.9768342971801758,381854236236178,OTHER
853,-3.4572272300720215,9.701305389404297,0.4213795065879822,381854256316353,OTHER
854,-2.892195701599121,8.992621421813965,0.9768342971801758,381854276396527,POCKET
855,-2.1547815799713135,9.624691009521484,2.959233283996582,381854296476703,POCKET
856,-4.041412353515625,8.14028549194336,1.2066776752471924,381854316556877,OTHER
857,-3.974374771118164,8.08282470703125,1.37906014919281,381854336637052,OTHER
858,-3.6583402156829834,8.169015884399414,4.443638324737549,381854356717227,OTHER
859,-4.520252704620361,7.527369976043701,3.840299606323242,381854376766885,OTHER
860,-3.936067581176758,7.833827972412109,2.719813108444214,381854396847059,OTHER
861,-3.533841609954834,7.805097579956055,2.3080103397369385,381854416927234,OTHER
862,-3.667917013168335,7.422025203704834,2.518700122833252,381854437007409,OTHER
863,-2.9688100814819336,7.805097579956055,3.1028854846954346,381854457087584,OTHER
864,-3.1890766620635986,7.469909191131592,2.011129379272461,381854477167759,OTHER
865,-3.1220390796661377,7.163451671600342,1.5418659448623657,381854497247933,OTHER
866,-3.4380736351013184,6.828263282775879,0.8810662031173706,381854517328108,OTHER
867,-2.6815059185028076,6.675034523010254,2.3558945655822754,381854537408283,OTHER
868,0.8427590131759644,4.5394062995910645,2.920926094055176,381854557488457,OTHER
869,-3.2752678394317627,5.123591423034668,2.279279947280884,381854577568633,OTHER
870,-5.219359874725342,5.142745018005371,3.00711727142334,381854597618291,OTHER
871,-5.4013190269470215,4.922478675842285,2.38462495803833,381854617698465,OTHER
872,-4.07014274597168,5.458779811859131,5.7556610107421875,381854637778640,OTHER
873,-1.1300631761550903,5.841852188110352,6.933608055114746,381854657889331,OTHER
874,-0.6799532771110535,5.803544998168945,5.669469833374023,381854677969507,OTHER
875,-0.3734954595565796,6.205770969390869,9.940725326538086,381854698049681,OTHER
876,-3.0166940689086914,5.506663799285889,7.718906402587891,381854718129856,OTHER
877,-4.8937482833862305,5.640739440917969,6.751648902893066,381854738210031,OTHER
878,-5.65031623840332,5.449203014373779,6.962338447570801,381854758290205,OTHER
879,-3.821146011352539,6.01423454284668,7.2783732414245605,381854778370381,OTHER
880,-1.5514427423477173,6.560112476348877,7.096413612365723,381854798450555,OTHER
881,-1.091755986213684,6.445190906524658,6.885724067687988,381854818530730,OTHER
882,-0.6512228846549988,6.540958881378174,7.144298076629639,381854838610905,OTHER
883,-0.6320692300796509,6.742072105407715,7.766790390014648,381854858691079,OTHER
884,-0.9481038451194763,6.4834980964660645,8.063671112060547,381854878771255,OTHER
885,-0.9193734526634216,6.406883716583252,7.929595947265625,381854898851429,OTHER
886,-0.5746083855628967,6.320692539215088,7.90086555480957,381854918931604,OTHER
887,-0.09576806426048279,6.282385349273682,7.747636795043945,381854939011779,OTHER
888,0.1628057211637497,6.215347766876221,7.575253963470459,381854959122470,OTHER
889,0.31603461503982544,6.1770405769348145,7.594407558441162,381854979202645,OTHER
890,0.545877993106842,6.196194171905518,7.939172744750977,381854999282820,OTHER
891,0.6607996821403503,6.1770405769348145,8.034940719604492,381855019362995,OTHER
892,0.49799394607543945,6.224924564361572,8.054094314575195,381855039443170,OTHER
893,0.6607996821403503,6.282385349273682,7.814674377441406,381855059523344,OTHER
894,0.7086837291717529,6.27280855178833,7.565677165985107,381855079603519,OTHER
895,0.5363011956214905,6.282385349273682,7.383718013763428,381855099683694,OTHER
896,0.07661445438861847,6.320692539215088,7.15387487411499,381855119763869,OTHER
897,-0.23942017555236816,6.426037311553955,7.0772600173950195,381855139844044,OTHER
898,-0.47884035110473633,6.3973069190979,7.326257228851318,381855159924218,OTHER
899,-0.4596867263317108,6.445190906524658,7.594407558441162,381855180004393,OTHER
900,-0.6033388376235962,6.493074893951416,7.671022415161133,381855200084568,OTHER
901,-0.689530074596405,6.445190906524658,7.450755596160889,381855220195260,OTHER
902,-0.6320692300796509,6.540958881378174,7.1251444816589355,381855240275434,OTHER
903,-0.6224924325942993,6.550535678863525,6.876147270202637,381855260355610,OTHER
904,-0.5841852426528931,6.5696892738342285,6.636727333068848,381855280435784,OTHER
905,-0.5554547905921936,6.675034523010254,6.828263282775879,381855300515958,OTHER
906,-0.8331822156906128,6.655880928039551,7.029376029968262,381855320596134,OTHER
907,-0.9864110946655273,6.617573261260986,7.086836814880371,381855340676308,OTHER
908,-0.9768342971801758,6.598419666290283,7.010222434997559,381855360756483,OTHER
909,-0.7086837291717529,6.742072105407715,6.971915245056152,381855380836658,OTHER
910,-0.7852981686592102,6.694188117980957,6.9910688400268555,381855400916832,OTHER
911,-0.8427590131759644,6.703764915466309,7.029376029968262,381855420997008,OTHER
912,-0.7852981686592102,6.780379295349121,7.163451671600342,381855441077182,OTHER
913,-0.9385270476341248,6.780379295349121,7.383718013763428,381855461157357,OTHER
914,-0.7374141216278076,6.703764915466309,7.422025203704834,381855481237532,OTHER
915,-0.6033388376235962,6.761225700378418,7.240066051483154,381855501317707,OTHER
916,-0.6607996821403503,6.761225700378418,6.933608055114746,381855521397882,OTHER
917,-0.5650315880775452,6.856993675231934,6.9240312576293945,381855541478056,OTHER
918,-0.6991068720817566,6.789956092834473,7.15387487411499,381855561558231,OTHER
919,-0.727837324142456,6.694188117980957,7.383718013763428,381855581668923,OTHER
920,-0.5267243981361389,6.7708024978637695,7.2783732414245605,381855601749097,OTHER
921,-0.3734954595565796,6.761225700378418,7.115567684173584,381855621829273,OTHER
922,-0.28730419278144836,6.732495307922363,7.000645637512207,381855641909447,OTHER
923,-0.49799394607543945,6.694188117980957,6.904877662658691,381855661989622,OTHER
924,-0.40222588181495667,6.627150535583496,6.732495307922363,381855682069797,OTHER
925,-0.26815059781074524,6.703764915466309,6.57926607131958,381855702149971,OTHER
926,-0.363918662071228,6.636727333068848,6.426037311553955,381855722230147,OTHER
927,-0.6033388376235962,6.57926607131958,6.186617374420166,381855742310321,OTHER
928,-0.9672574996948242,6.5696892738342285,5.372588634490967,381855762390496,OTHER
929,-0.9481038451194763,6.560112476348877,4.865017890930176,381855782470671,OTHER
930,-1.216254472732544,6.2632317543029785,5.621585369110107,381855802550845,OTHER
931,-1.0821791887283325,5.870582580566406,6.4164605140686035,381855822631021,OTHER
932,-0.4213795065879822,5.698200225830078,7.086836814880371,381855842711195,OTHER
933,0.4118026793003082,5.602431774139404,7.422025203704834,381855862791369,OTHER
934,0.49799394607543945,5.382165431976318,8.044517517089844,381855882871545,OTHER
935,0.15322890877723694,5.161899089813232,9.165003776550293,381855902951719,OTHER
936,0.20111294090747833,4.989516258239746,10.438719749450684,381855923031895,OTHER
937,0.545877993106842,4.874594688415527,10.630255699157715,381855943112069,OTHER
938,0.6512228846549988,4.95120906829834,10.218452453613281,381855963192243,OTHER
939,0.7852981686592102,4.922478675842285,9.758766174316406,381855983272419,OTHER
940,0.7374141216278076,4.95120906829834,9.691728591918945,381856003352593,OTHER
941,0.6991068720817566,4.903325080871582,9.509769439697266,381856023432768,OTHER
942,0.7374141216278076,4.95120906829834,9.117119789123535,381856043512943,OTHER
943,0.5554547905921936,4.8937482833862305,9.040505409240723,381856063593117,OTHER
944,0.3256114423274994,4.912901878356934,8.829815864562988,381856083673293,OTHER
945,0.13407529890537262,4.941632270812988,8.59997272491455,381856103753467,OTHER
946,-0.028730420395731926,4.884171485900879,8.47547435760498,381856123833642,OTHER
947,0.10534487664699554,4.836287498474121,8.513781547546387,381856143913817,OTHER
948,-0.23942017555236816,4.711789131164551,8.724471092224121,381856163993992,OTHER
949,-0.40222588181495667,4.683058738708496,9.02135181427002,381856184074167,OTHER
950,-0.31603461503982544,4.663905143737793,9.059659004211426,381856204154341,OTHER
951,-0.20111294090747833,4.721365928649902,9.701305389404297,381856224234516,OTHER
952,-0.3734954595565796,4.721365928649902,10.189722061157227,381856244314691,OTHER
953,-0.3447650372982025,4.702212333679199,10.046070098876953,381856264394866,OTHER
954,-0.3256114423274994,4.855441093444824,9.940725326538086,381856284475040,OTHER
955,-0.5554547905921936,4.884171485900879,10.295066833496094,381856304555215,OTHER
956,-0.9193734526634216,5.114014625549316,10.515334129333496,381856324635390,OTHER
957,-0.8906430602073669,5.257667064666748,10.247182846069336,381856344715565,OTHER
958,-0.7948749661445618,5.679046630859375,9.423578262329102,381856364795740,OTHER
959,-0.871489405632019,6.0621185302734375,8.130708694458008,381856384875914,OTHER
960,-0.6416460275650024,6.57926607131958,7.508216381072998,381856404956089,OTHER
961,-0.6320692300796509,6.799532890319824,6.809109687805176,381856425036264,OTHER
962,-0.5841852426528931,6.904877662658691,6.129156112670898,381856445116438,OTHER
963,-0.49799394607543945,7.201758861541748,6.052541732788086,381856465196614,OTHER
964,-0.5554547905921936,7.1251444816589355,6.512228488922119,381856485276788,OTHER
965,-0.49799394607543945,7.240066051483154,6.818686485290527,381856505356963,OTHER
966,-0.8523358106613159,7.46033239364624,6.550535678863525,381856525437138,OTHER
967,-1.2449848651885986,7.393294811248779,5.899312973022461,381856545517312,OTHER
968,-1.0342950820922852,7.402871608734131,6.033388137817383,381856565597488,OTHER
969,-1.072602391242981,7.65186882019043,5.612008571624756,381856585677662,OTHER
970,-1.0821791887283325,7.718906402587891,4.95120906829834,381856605757837,OTHER
971,-1.0534487962722778,7.843404769897461,4.223371982574463,381856625838012,OTHER
972,-0.689530074596405,8.044517517089844,3.44765043258667,381856645918186,OTHER
973,-0.363918662071228,8.236053466796875,2.786850690841675,381856665998362,POCKET
974,0.05746084079146385,8.40843677520752,2.432508945465088,381856686078536,POCKET
975,0.181959331035614,8.580819129943848,2.5282769203186035,381856706158710,POCKET
976,0.10534487664699554,8.53293514251709,2.873042106628418,381856726238886,POCKET
977,-0.20111294090747833,8.446743965148926,3.44765043258667,381856746319060,OTHER
978,-0.2585737705230713,8.465897560119629,3.9456443786621094,381856766399236,OTHER
979,-0.363918662071228,8.418013572692871,4.3861775398254395,381856786479410,OTHER
980,-0.6129156351089478,8.47547435760498,4.654327869415283,381856806559585,OTHER
981,-0.7374141216278076,8.437167167663574,4.7405195236206055,381856826639760,OTHER
982,-0.6033388376235962,8.580819129943848,4.587290287017822,381856846719934,OTHER
983,-0.4213795065879822,8.65743350982666,4.4532151222229,381856866800109,OTHER
984,-0.3256114423274994,8.695740699768066,4.568136692047119,381856886880284,OTHER
985,-0.28730419278144836,8.762778282165527,4.434061527252197,381856906960459,OTHER
986,-0.33518823981285095,8.734047889709473,4.434061527252197,381856927040634,OTHER
987,-0.4884171485900879,8.695740699768066,4.558559894561768,381856947120808,OTHER
988,-0.5650315880775452,8.71489429473877,4.644751071929932,381856967200983,OTHER
989,-0.4596867263317108,8.71489429473877,4.797980308532715,381856987281158,OTHER
990,-0.4118026793003082,8.772355079650879,4.683058738708496,381857007361333,OTHER
991,-0.5363011956214905,8.71489429473877,4.7405195236206055,381857027441508,OTHER
992,-0.4884171485900879,8.647856712341309,4.6734819412231445,381857047521682,OTHER
993,-0.5746083855628967,8.676587104797363,4.51067590713501,381857067601857,OTHER
994,-0.49799394607543945,8.59997272491455,4.520252704620361,381857087682032,OTHER
995,-0.363918662071228,8.647856712341309,4.558559894561768,381857107731690,OTHER
996,-0.5267243981361389,8.65743350982666,4.63517427444458,381857127811864,OTHER
997,-0.6033388376235962,8.619126319885254,4.3861775398254395,381857147892039,OTHER
998,-0.4692635238170624,8.65743350982666,4.213795185089111,381857167972214,OTHER
999,-0.43095630407333374,8.5903959274292,4.261679172515869,381857188052389,OTHER
1000,-0.47884035110473633,8.647856712341309,4.271255970001221,381857208132564,OTHER
1001,-0.5363011956214905,8.647856712341309,4.185064792633057,381857228212738,OTHER
1002,-0.6416460275650024,8.59997272491455,4.165910720825195,381857248292913,OTHER
1003,-0.6033388376235962,8.59997272491455,4.185064792633057,381857268373088,OTHER
1004,-0.6033388376235962,8.667010307312012,4.395754337310791,381857288453263,OTHER
1005,-0.6512228846549988,8.667010307312012,4.3861775398254395,381857308533437,OTHER
1006,-0.6129156351089478,8.734047889709473,4.405331134796143,381857328613612,OTHER
1007,-0.6224924325942993,8.753201484680176,4.357447147369385,381857348693787,OTHER
1008,-0.5650315880775452,8.743624687194824,4.4723687171936035,381857368743445,OTHER
1009,-0.5171475410461426,8.724471092224121,4.606443881988525,381857388823620,OTHER
1010,-0.4692635238170624,8.772355079650879,4.606443881988525,381857408903795,OTHER
1011,-0.49799394607543945,8.743624687194824,4.5394062995910645,381857428983969,OTHER
1012,-0.4884171485900879,8.724471092224121,4.3861775398254395,381857449064144,OTHER
1013,-0.47884035110473633,8.695740699768066,4.414907932281494,381857469144319,OTHER
1014,-0.545877993106842,8.676587104797363,4.443638324737549,381857489224494,OTHER
1015,-0.5554547905921936,8.71489429473877,4.529829502105713,381857509304669,OTHER
1016,-0.5650315880775452,8.724471092224121,4.4532151222229,381857529384843,OTHER
1017,-0.5841852426528931,8.619126319885254,4.20421838760376,381857549465018,OTHER
1018,-0.5171475410461426,8.619126319885254,3.9839515686035156,381857569545193,OTHER
1019,-0.4213795065879822,8.5903959274292,4.050989151000977,381857589625367,OTHER
1020,-0.5650315880775452,8.609549522399902,4.20421838760376,381857609675025,OTHER
1021,-0.5363011956214905,8.53293514251709,4.156333923339844,381857629755200,OTHER
1022,-0.4118026793003082,8.465897560119629,4.079719543457031,381857649835375,OTHER
1023,-0.6033388376235962,8.456320762634277,4.031835556030273,381857669915550,OTHER
1024,-0.7852981686592102,8.427590370178223,3.773261785507202,381857689995725,OTHER
1025,-0.5937620401382446,8.456320762634277,3.8307228088378906,381857710075899,OTHER
1026,-0.2106897532939911,8.427590370178223,4.060565948486328,381857730156074,OTHER
1027,-0.05746084079146385,8.063671112060547,4.07014274597168,381857750236249,OTHER
1028,0.24899697303771973,8.092401504516602,4.089296340942383,381857770316423,OTHER
1029,0.4213795065879822,8.08282470703125,4.290409564971924,381857790366081,OTHER
1030,0.047884032130241394,8.073247909545898,5.2480902671813965,381857810446257,OTHER
1031,-0.45010992884635925,7.785943984985352,5.95677375793457,381857830526431,OTHER
1032,-0.8331822156906128,7.469909191131592,6.349422931671143,381857850606606,OTHER
1033,-0.7469909191131592,7.575253963470459,6.071695327758789,381857870686781,OTHER
1034,-0.8140285611152649,7.680599212646484,6.406883716583252,381857890766955,OTHER
1035,-1.0342950820922852,7.441178798675537,6.71334171295166,381857910847131,OTHER
1036,-0.7948749661445618,7.383718013763428,6.665457725524902,381857930927305,OTHER
1037,-0.7757213711738586,7.402871608734131,6.435614109039307,381857951007479,OTHER
1038,-0.6799532771110535,7.230489253997803,6.464344501495361,381857971087655,OTHER
1039,-0.4213795065879822,7.144298076629639,6.885724067687988,381857991167829,OTHER
1040,-0.3926490843296051,7.010222434997559,7.383718013763428,381858011248005,OTHER
1041,-0.363918662071228,6.876147270202637,7.709329605102539,381858031297662,OTHER
1042,-0.3256114423274994,6.71334171295166,8.111555099487305,381858051377837,OTHER
1043,-0.19153612852096558,6.71334171295166,8.245630264282227,381858071458011,OTHER
1044,-0.2106897532939911,6.627150535583496,8.303091049194336,381858091538187,OTHER
1045,-0.38307225704193115,6.5696892738342285,8.169015884399414,381858111618361,OTHER
1046,-0.2585737705230713,6.550535678863525,8.044517517089844,381858131698535,OTHER
1047,-0.20111294090747833,6.588842868804932,7.623138427734375,381858151778711,OTHER
1048,-0.38307225704193115,6.550535678863525,7.469909191131592,381858171858885,OTHER
1049,-0.47884035110473633,6.473921298980713,7.613561630249023,381858191939061,OTHER
1050,-0.4596867263317108,6.45476770401001,7.728483200073242,381858212019235,OTHER
1051,-0.6129156351089478,6.406883716583252,7.843404769897461,381858232099409,OTHER
1052,-0.545877993106842,6.464344501495361,7.833827972412109,381858252149067,OTHER
1053,-0.363918662071228,6.521805286407471,7.603984832763672,381858272229243,OTHER
1054,-0.4596867263317108,6.473921298980713,7.201758861541748,381858292309417,OTHER
1055,-0.5267243981361389,6.435614109039307,6.971915245056152,381858312389593,OTHER
1056,-0.5171475410461426,6.493074893951416,7.1921820640563965,381858332469767,OTHER
1057,-0.507570743560791,6.3973069190979,7.441178798675537,381858352549941,OTHER
1058,-0.4405331015586853,6.358999729156494,7.527369976043701,381858372630117,OTHER
1059,-0.43095630407333374,6.3973069190979,7.383718013763428,381858392710291,OTHER
1060,-0.3447650372982025,6.311115741729736,7.374141216278076,381858412790466,OTHER
1061,-0.3447650372982025,6.339846134185791,7.402871608734131,381858432870641,OTHER
1062,-0.40222588181495667,6.3302693367004395,7.326257228851318,381858452950815,OTHER
1063,-0.4118026793003082,6.358999729156494,7.364564418792725,381858473030991,OTHER
1064,-0.35434186458587646,6.320692539215088,7.479485988616943,381858493111165,OTHER
1065,-0.363918662071228,6.2632317543029785,7.671022415161133,381858513191340,OTHER
1066,-0.43095630407333374,6.244078159332275,7.575253963470459,381858533271515,OTHER
1067,-0.5554547905921936,6.291962146759033,7.173028469085693,381858553351689,OTHER
1068,-0.5650315880775452,6.339846134185791,7.182605266571045,381858573431864,OTHER
1069,-0.5937620401382446,6.311115741729736,7.1251444816589355,381858593512039,OTHER
1070,-0.5267243981361389,6.100425720214844,7.268796443939209,381858613561697,OTHER
1071,-0.4692635238170624,6.14831018447876,7.201758861541748,381858633641871,OTHER
1072,-0.4118026793003082,6.052541732788086,6.751648902893066,381858653722047,OTHER
1073,-0.26815059781074524,5.975927352905273,7.086836814880371,381858673802221,OTHER
1074,0.0,6.033388137817383,7.2113356590271,381858693882396,OTHER
1075,-0.047884032130241394,5.382165431976318,7.383718013763428,381858713962571,OTHER
1076,-0.08619125932455063,5.736507415771484,7.671022415161133,381858734042745,OTHER
1077,-0.3256114423274994,5.037400245666504,7.891288757324219,381858754122921,OTHER
1078,-0.15322890877723694,4.865017890930176,8.255207061767578,381858774203095,OTHER
1079,-0.38307225704193115,4.730942726135254,8.379706382751465,381858794252753,OTHER
1080,-0.8236053586006165,4.596867084503174,9.08838939666748,381858814332928,OTHER
1081,-1.1300631761550903,4.137180328369141,9.931148529052734,381858834413103,OTHER
1082,-0.6320692300796509,4.089296340942383,10.113107681274414,381858854493277,OTHER
1083,-0.13407529890537262,4.242525577545166,10.400412559509277,381858874573452,OTHER
1084,-0.15322890877723694,4.07014274597168,10.563218116760254,381858894653627,OTHER
1085,-0.10534487664699554,4.079719543457031,10.54406452178955,381858914733802,OTHER
1086,-0.2968810200691223,4.041412353515625,10.093954086303711,381858934813977,OTHER
1087,-0.3734954595565796,4.165910720825195,9.461885452270508,381858954863635,OTHER
1088,-0.33518823981285095,4.280832767486572,8.9064302444458,381858974943809,OTHER
1089,-0.4884171485900879,4.261679172515869,8.868123054504395,381858995023984,OTHER
1090,-0.33518823981285095,4.060565948486328,8.705317497253418,381859015104159,OTHER
1091,-0.047884032130241394,4.338293552398682,8.236053466796875,381859035184333,OTHER
1092,-0.23942017555236816,4.309563159942627,8.255207061767578,381859055264508,OTHER
1093,-0.47884035110473633,4.1180267333984375,7.709329605102539,381859075344683,OTHER
1094,-0.6033388376235962,3.9839515686035156,7.46033239364624,381859095424858,OTHER
1095,-0.9193734526634216,4.079719543457031,8.71489429473877,381859115474515,OTHER
1096,-1.091755986213684,3.6296098232269287,9.02135181427002,381859135554691,OTHER
1097,-0.7661445140838623,3.5625722408294678,8.983044624328613,381859155634865,OTHER
1098,-0.7852981686592102,3.1699230670928955,8.89685344696045,381859175715040,OTHER
1099,-0.40222588181495667,3.2178070545196533,9.117119789123535,381859195795215,OTHER
1100,-0.06703764945268631,3.4572272300720215,10.074800491333008,381859215875389,OTHER
1101,-0.6991068720817566,2.6623523235321045,10.381258964538574,381859235955564,OTHER
1102,-0.545877993106842,2.63362193107605,10.8505220413208,381859256035739,OTHER
1103,-0.6033388376235962,2.6431987285614014,10.898406028747559,381859276085397,OTHER
1104,-0.5267243981361389,2.537853717803955,10.620678901672363,381859296165572,OTHER
1105,-0.363918662071228,2.7964274883270264,10.218452453613281,381859316245747,OTHER
1106,-0.5171475410461426,2.892195701599121,10.007762908935547,381859336325921,OTHER
1107,-0.9481038451194763,2.9017724990844727,10.074800491333008,381859356406096,OTHER
1108,-1.1492167711257935,2.9496564865112305,10.295066833496094,381859376486271,OTHER
1109,-1.522712230682373,3.0550012588500977,10.093954086303711,381859396566446,OTHER
1110,-1.7525556087493896,3.19865345954895,9.701305389404297,381859416646620,OTHER
1111,-1.8770540952682495,3.3710360527038574,9.624691009521484,381859436726795,OTHER
1112,-1.7812861204147339,3.600879430770874,9.519346237182617,381859456806970,OTHER
1113,-1.6089035272598267,3.600879430770874,8.494627952575684,381859476887145,OTHER
1114,1.3215993642807007,3.7253777980804443,8.121131896972656,381859496967320,OTHER
1115,1.436521053314209,5.420472621917725,9.528923034667969,381859517047494,OTHER
1116,-0.6607996821403503,3.9456443786621094,9.739612579345703,381859537127669,OTHER
1117,-0.5171475410461426,4.884171485900879,9.193734169006348,381859557207844,OTHER
1118,-0.727837324142456,4.644751071929932,9.452308654785156,381859577288019,OTHER
1119,-0.5937620401382446,4.817133903503418,8.983044624328613,381859597368194,OTHER
1120,-0.26815059781074524,4.797980308532715,9.567230224609375,381859617448368,OTHER
1121,0.2585737705230713,4.865017890930176,9.481039047241211,381859637528543,OTHER
1122,0.4692635238170624,5.190629482269287,9.260771751403809,381859657608718,OTHER
1123,0.26815059781074524,5.142745018005371,8.944737434387207,381859677688892,OTHER
1124,0.3926490843296051,5.219359874725342,8.868123054504395,381859697769068,OTHER
1125,0.26815059781074524,5.382165431976318,8.667010307312012,381859717849242,OTHER
1126,0.15322890877723694,5.497087001800537,8.504204750061035,381859737929417,OTHER
1127,0.507570743560791,5.535394191741943,7.95832633972168,381859758009592,OTHER
1128,0.5746083855628967,6.129156112670898,7.297526836395264,381859778089766,OTHER
1129,0.3064578175544739,6.291962146759033,5.51624059677124,381859798169942,OTHER
1130,-1.091755986213684,6.301538944244385,6.14831018447876,381859818250116,OTHER
1131,-1.2258312702178955,6.186617374420166,8.26478385925293,381859838330290,OTHER
1132,-1.1971008777618408,6.598419666290283,9.519346237182617,381859858410466,OTHER
1133,-3.2752678394317627,7.977479934692383,10.898406028747559,381859878490640,OTHER
1134,-2.346317768096924,7.1921820640563965,8.772355079650879,381859898570816,OTHER
1135,1.0630255937576294,5.765237808227539,6.885724067687988,381859918650990,OTHER
1136,0.363918662071228,6.090848922729492,5.640739440917969,381859938731165,OTHER
1137,-1.2258312702178955,6.368576526641846,5.535394191741943,381859958811340,OTHER
1138,-0.7757213711738586,6.253654956817627,6.157886981964111,381859978860998,OTHER
1139,-0.7852981686592102,6.550535678863525,7.096413612365723,381859998941172,OTHER
1140,0.1149216815829277,6.464344501495361,8.130708694458008,381860019021348,OTHER
1141,0.8044517636299133,6.512228488922119,7.556100368499756,381860039101522,OTHER
1142,-0.13407529890537262,6.694188117980957,6.01423454284668,381860059181696,OTHER
1143,-1.7525556087493896,7.690176010131836,5.947196960449219,381860079261872,OTHER
1144,-2.0877439975738525,7.977479934692383,4.309563159942627,381860099342046,OTHER
1145,-0.5267243981361389,7.508216381072998,3.734954595565796,381860119422221,OTHER
1146,-0.17238251864910126,8.054094314575195,3.4380736351013184,381860139502396,OTHER
1147,-0.507570743560791,8.379706382751465,2.82515811920166,381860159582570,POCKET
1148,-0.689530074596405,8.236053466796875,3.974374771118164,381860179662746,OTHER
1149,-0.40222588181495667,8.226476669311523,5.420472621917725,381860199742920,OTHER
1150,-0.7565677165985107,8.121131896972656,6.550535678863525,381860219823095,OTHER
1151,-0.5171475410461426,7.757213592529297,5.975927352905273,381860239903270,OTHER
1152,-1.436521053314209,7.33583402633667,4.9799394607543945,381860259983444,OTHER
1153,-1.2066776752471924,7.201758861541748,5.085284233093262,381860280063619,OTHER
1154,-0.5554547905921936,7.536946773529053,5.0469770431518555,381860300143794,OTHER
1155,0.12449848651885986,7.987056732177734,4.903325080871582,381860320223969,OTHER
1156,0.2106897532939911,8.054094314575195,4.8267107009887695,381860340273626,OTHER
1157,-0.12449848651885986,7.881711959838867,4.788403511047363,381860360353802,OTHER
1158,-0.08619125932455063,7.977479934692383,4.587290287017822,381860380433976,OTHER
1159,0.28730419278144836,8.274360656738281,4.424484729766846,381860400514151,OTHER
1160,0.5746083855628967,8.504204750061035,4.548983097076416,381860420594326,OTHER
1161,0.43095630407333374,8.504204750061035,4.874594688415527,381860440674501,OTHER
1162,0.4213795065879822,8.504204750061035,5.190629482269287,381860460754675,OTHER
1163,0.43095630407333374,8.580819129943848,5.57370138168335,381860480834850,OTHER
1164,0.22026655077934265,8.485051155090332,5.602431774139404,381860500915025,OTHER
1165,0.019153613597154617,8.360552787780762,5.669469833374023,381860520964683,OTHER
1166,0.05746084079146385,8.341399192810059,6.205770969390869,381860541044858,OTHER
1167,0.15322890877723694,8.312667846679688,6.6846113204956055,381860561125032,OTHER
1168,0.05746084079146385,8.20732307434082,6.6846113204956055,381860581205207,OTHER
1169,-0.10534487664699554,8.121131896972656,6.426037311553955,381860601285382,OTHER
1170,-0.4118026793003082,8.006210327148438,5.698200225830078,381860621365557,OTHER
1171,-0.40222588181495667,7.987056732177734,5.4013190269470215,381860641445732,OTHER
1172,-0.43095630407333374,7.95832633972168,5.276820659637451,381860661525906,OTHER
1173,-0.1149216815829277,8.063671112060547,5.679046630859375,381860681606081,OTHER
1174,0.10534487664699554,8.111555099487305,5.918466567993164,381860701686256,OTHER
1175,0.09576806426048279,8.054094314575195,5.669469833374023,381860721735914,OTHER
1176,-0.009576806798577309,8.02536392211914,5.592854976654053,381860741816088,OTHER
1177,-0.05746084079146385,8.054094314575195,5.5545477867126465,381860761896263,OTHER
1178,-0.19153612852096558,8.08282470703125,5.57370138168335,381860781976438,OTHER
1179,-0.17238251864910126,8.178592681884766,5.746084213256836,381860802056613,OTHER
1180,-0.13407529890537262,8.178592681884766,5.659893035888672,381860822136788,OTHER
1181,-0.038307227194309235,8.33182144165039,5.20978307723999,381860842216962,OTHER
1182,-0.08619125932455063,8.465897560119629,4.855441093444824,381860862297137,OTHER
1183,-0.1149216815829277,8.370129585266113,4.855441093444824,381860882377312,OTHER
1184,-0.28730419278144836,8.283937454223633,4.989516258239746,381860902426970,OTHER
1185,-0.31603461503982544,8.159439086914062,5.343858242034912,381860922507145,OTHER
1186,0.038307227194309235,8.283937454223633,5.458779811859131,381860942587319,OTHER
1187,0.13407529890537262,8.427590370178223,5.746084213256836,381860962667494,OTHER
1188,0.23942017555236816,8.418013572692871,5.525817394256592,381860982747669,OTHER
1189,0.15322890877723694,8.485051155090332,5.2672438621521,381861002827844,OTHER
1190,0.3734954595565796,8.628703117370605,5.592854976654053,381861022908019,OTHER
1191,0.43095630407333374,8.65743350982666,5.544970989227295,381861042988193,OTHER
1192,0.507570743560791,8.686163902282715,4.778826713562012,381861063068368,OTHER
1193,0.6512228846549988,8.9064302444458,4.395754337310791,381861083148543,OTHER
1194,0.6129156351089478,8.762778282165527,4.146757125854492,381861103228717,OTHER
1195,0.5363011956214905,8.887276649475098,3.773261785507202,381861123308893,OTHER
1196,0.181959331035614,8.820239067077637,3.5625722408294678,381861143389067,OTHER
1197,0.09576806426048279,8.743624687194824,3.514688014984131,381861163469242,OTHER
1198,0.3064578175544739,8.829815864562988,3.7253777980804443,381861183549417,OTHER
1199,0.5363011956214905,8.829815864562988,3.8594532012939453,381861203629591,OTHER
1200,0.5554547905921936,8.734047889709473,3.8307228088378906,381861223679249,OTHER
1201,0.5746083855628967,8.628703117370605,3.840299606323242,381861243759424,OTHER
1202,0.5267243981361389,8.59997272491455,4.223371982574463,381861263705215,OTHER
1203,0.6416460275650024,8.705317497253418,3.6296098232269287,381861283785390,OTHER
1204,0.4118026793003082,8.83939266204834,3.3518824577331543,381861303865565,OTHER
1205,0.2106897532939911,8.743624687194824,3.2082302570343018,381861323945739,OTHER
1206,0.3256114423274994,8.762778282165527,2.978386878967285,381861344025914,POCKET
1207,0.4884171485900879,8.772355079650879,2.892195701599121,381861364106089,POCKET
1208,0.6416460275650024,8.868123054504395,3.160346269607544,381861384186264,OTHER
1209,0.7757213711738586,8.877699851989746,3.026270866394043,381861404235921,OTHER
1210,0.689530074596405,8.89685344696045,2.8347349166870117,381861424316097,POCKET
1211,0.545877993106842,8.820239067077637,2.346317768096924,381861444396271,POCKET
1212,0.4692635238170624,8.762778282165527,2.078166961669922,381861464476446,POCKET
1213,0.5363011956214905,8.858546257019043,2.1547815799713135,381861484556621,POCKET
1214,0.7374141216278076,8.791508674621582,2.0590133666992188,381861504636795,POCKET
1215,0.8044517636299133,8.753201484680176,2.1356279850006104,381861524716971,POCKET
1216,0.871489405632019,8.695740699768066,3.428496837615967,381861544797145,OTHER
1217,0.4405331015586853,8.53293514251709,5.535394191741943,381861564877320,OTHER
1218,0.38307225704193115,8.255207061767578,6.876147270202637,381861584957495,OTHER
1219,0.363918662071228,8.427590370178223,7.0772600173950195,381861605037669,OTHER
1220,0.3064578175544739,8.446743965148926,6.368576526641846,381861625087327,OTHER
1221,0.028730420395731926,8.485051155090332,5.813121795654297,381861645167502,OTHER
1222,0.12449848651885986,8.542511940002441,5.937620162963867,381861665247677,OTHER
1223,0.22026655077934265,8.65743350982666,6.186617374420166,381861685327851,OTHER
1224,0.15322890877723694,8.59997272491455,6.023811340332031,381861705408027,OTHER
1225,0.2298433631658554,8.638279914855957,6.224924564361572,381861725488201,OTHER
1226,0.22026655077934265,8.571242332458496,5.70777702331543,381861745568376,OTHER
1227,0.08619125932455063,8.552088737487793,5.315127849578857,381861765648551,OTHER
1228,-0.15322890877723694,8.370129585266113,5.449203014373779,381861785728725,OTHER
1229,-0.009576806798577309,8.437167167663574,5.382165431976318,381861805808901,OTHER
1230,0.028730420395731926,8.40843677520752,5.008669853210449,381861825889075,OTHER
1231,-0.05746084079146385,8.40843677520752,4.884171485900879,381861845969249,OTHER
1232,0.09576806426048279,8.485051155090332,5.525817394256592,381861866049425,OTHER
1233,0.14365209639072418,8.446743965148926,5.612008571624756,381861886099083,OTHER
1234,0.06703764945268631,8.427590370178223,5.0469770431518555,381861906179257,OTHER
1235,0.3256114423274994,8.5903959274292,4.989516258239746,381861926259433,OTHER
1236,0.45010992884635925,8.667010307312012,4.797980308532715,381861946339607,OTHER
1237,0.4596867263317108,8.829815864562988,4.6734819412231445,381861966419781,OTHER
1238,0.5171475410461426,8.724471092224121,4.156333923339844,381861986499957,OTHER
1239,0.6033388376235962,8.935160636901855,3.4763808250427246,381862006580131,OTHER
1240,0.7565677165985107,9.002198219299316,3.8498764038085938,381862026660306,OTHER
1241,0.8906430602073669,9.059659004211426,3.6774938106536865,381862046740481,OTHER
1242,1.0247182846069336,9.21288776397705,3.466804027557373,381862066820655,OTHER
1243,0.9672574996948242,9.2033109664917,3.2561142444610596,381862086900831,OTHER
1244,0.9385270476341248,9.02135181427002,2.9975404739379883,381862106950489,POCKET
1245,0.8619126081466675,9.02135181427002,2.9975404739379883,381862127030663,POCKET
1246,0.9864110946655273,9.02135181427002,3.2082302570343018,381862147110837,OTHER
1247,1.0630255937576294,9.107542991638184,3.3710360527038574,381862167191013,OTHER
1248,0.9959878921508789,9.011775016784668,3.313575267791748,381862187271187,OTHER
1249,0.9193734526634216,9.069235801696777,3.064578056335449,381862207351363,OTHER
1250,0.9289502501487732,9.050082206726074,2.7772738933563232,381862227431537,POCKET
1251,0.8236053586006165,9.136273384094238,2.5282769203186035,381862247511711,POCKET
1252,0.9002198576927185,9.174580574035645,2.5474305152893066,381862267591887,POCKET
1253,0.8331822156906128,9.08838939666748,2.8443117141723633,381862287641545,POCKET
1254,0.6033388376235962,8.992621421813965,2.978386878967285,381862307721719,POCKET
1255,0.45010992884635925,8.916007041931152,2.8634653091430664,381862327801894,POCKET
1256,0.4118026793003082,8.887276649475098,2.738966703414917,381862347882069,POCKET
1257,0.5267243981361389,9.078812599182129,2.7293899059295654,381862367962243,POCKET
1258,0.7948749661445618,9.030928611755371,3.2178070545196533,381862388042419,OTHER
1259,0.9481038451194763,9.165003776550293,3.246537446975708,381862408122593,OTHER
1260,0.8810662031173706,9.222464561462402,3.2848446369171143,381862428202768,OTHER
1261,0.6607996821403503,9.193734169006348,3.533841609954834,381862448282943,OTHER
1262,0.7469909191131592,9.136273384094238,3.3231520652770996,381862468363117,OTHER
1263,0.7374141216278076,9.35654067993164,3.1220390796661377,381862488443292,OTHER
1264,0.6512228846549988,9.232041358947754,3.1699230670928955,381862508523467,OTHER
1265,0.7565677165985107,9.174580574035645,3.2178070545196533,381862528603642,OTHER
1266,0.7469909191131592,9.260771751403809,3.3710360527038574,381862548653299,OTHER
1267,0.7182605266571045,9.184157371520996,3.552995204925537,381862568733475,OTHER
1268,0.727837324142456,9.097966194152832,3.6296098232269287,381862588813649,OTHER
1269,0.6799532771110535,9.117119789123535,3.361459255218506,381862608893824,OTHER
1270,0.5937620401382446,9.117119789123535,3.1316158771514893,381862628973999,OTHER
1271,0.5554547905921936,9.08838939666748,2.892195701599121,381862649054173,POCKET
1272,0.5650315880775452,9.08838939666748,3.026270866394043,381862669134348,OTHER
1273,0.8523358106613159,9.184157371520996,3.227383852005005,381862689214523,OTHER
1274,0.8619126081466675,9.232041358947754,3.160346269607544,381862709294698,OTHER
1275,0.7086837291717529,9.136273384094238,3.399766445159912,381862729374873,OTHER
1276,0.6416460275650024,9.184157371520996,3.265691041946411,381862749455047,OTHER
1277,0.7086837291717529,9.126696586608887,3.4955344200134277,381862769535222,OTHER
1278,0.7948749661445618,9.193734169006348,3.1699230670928955,381862789615397,OTHER
1279,0.5937620401382446,9.117119789123535,2.8347349166870117,381862809695572,POCKET
1280,0.545877993106842,9.078812599182129,2.7964274883270264,381862829775747,POCKET
1281,0.6512228846549988,9.117119789123535,3.179499864578247,381862849855921,OTHER
1282,0.6703764796257019,9.078812599182129,3.4380736351013184,381862869936096,OTHER
1283,0.6703764796257019,9.059659004211426,3.2561142444610596,381862890016271,OTHER
1284,0.7086837291717529,9.126696586608887,3.2178070545196533,381862910096446,OTHER
1285,0.7661445140838623,9.14585018157959,3.3423056602478027,381862930176620,OTHER
1286,0.7565677165985107,9.097966194152832,3.2848446369171143,381862950256796,OTHER
1287,0.6512228846549988,9.078812599182129,3.2178070545196533,381862970306453,OTHER
1288,0.545877993106842,8.954314231872559,3.112462282180786,381862990386628,OTHER
1289,0.4884171485900879,9.040505409240723,3.5434184074401855,381863010497320,OTHER
1290,0.689530074596405,8.992621421813965,3.8786067962646484,381863030577494,OTHER
1291,0.5267243981361389,8.935160636901855,3.2369606494903564,381863050657670,OTHER
1292,0.4405331015586853,8.858546257019043,2.978386878967285,381863070737844,POCKET
1293,0.3447650372982025,8.858546257019043,3.1316158771514893,381863090818018,OTHER
1294,0.4405331015586853,8.647856712341309,2.7293899059295654,381863110898194,POCKET
1295,0.23942017555236816,8.494627952575684,2.873042106628418,381863130978368,POCKET
1296,0.26815059781074524,8.255207061767578,3.1699230670928955,381863151058544,OTHER
1297,0.4596867263317108,8.255207061767578,3.754108190536499,381863171138718,OTHER
1298,0.8140285611152649,8.226476669311523,4.884171485900879,381863191218892,OTHER
1299,0.9768342971801758,8.130708694458008,5.544970989227295,381863211268550,OTHER
1300,0.4213795065879822,8.092401504516602,6.090848922729492,381863231348726,OTHER
1301,0.23942017555236816,7.862558364868164,6.512228488922119,381863251459418,OTHER
1302,0.22026655077934265,7.910442352294922,6.703764915466309,381863271509075,OTHER
1303,0.24899697303771973,7.862558364868164,6.57926607131958,381863291589250,OTHER
1304,-0.028730420395731926,7.6997528076171875,6.4164605140686035,381863311669424,OTHER
1305,0.08619125932455063,7.690176010131836,6.349422931671143,381863331749600,OTHER
1306,0.07661445438861847,7.603984832763672,6.167463779449463,381863351829774,OTHER
1307,-0.08619125932455063,7.527369976043701,6.157886981964111,381863371909948,OTHER
1308,0.12449848651885986,7.412448406219482,6.512228488922119,381863391990124,OTHER
1309,0.2585737705230713,7.469909191131592,7.01979923248291,381863412070298,OTHER
1310,0.5554547905921936,7.546523571014404,6.9910688400268555,381863432150474,OTHER
1311,0.3256114423274994,7.402871608734131,6.8378400802612305,381863452230648,OTHER
1312,0.047884032130241394,7.2783732414245605,6.732495307922363,381863472310823,OTHER
1313,-0.09576806426048279,7.249642848968506,6.675034523010254,381863492390998,OTHER
1314,0.2106897532939911,7.230489253997803,6.809109687805176,381863512440656,OTHER
1315,0.24899697303771973,7.182605266571045,6.732495307922363,381863532520830,OTHER
1316,0.0,6.943184852600098,7.2113356590271,381863552601005,OTHER
1317,-0.1628057211637497,6.943184852600098,7.383718013763428,381863572681180,OTHER
1318,-0.038307227194309235,6.856993675231934,7.230489253997803,381863592761354,OTHER
1319,-0.13407529890537262,6.732495307922363,7.393294811248779,381863612841530,OTHER
1320,-0.2106897532939911,6.6846113204956055,7.393294811248779,381863632921704,OTHER
1321,-0.17238251864910126,6.6846113204956055,7.575253963470459,381863653001879,OTHER
1322,-0.09576806426048279,6.675034523010254,7.364564418792725,381863673082054,OTHER
1323,-0.2106897532939911,6.646304130554199,7.105990409851074,381863693162228,OTHER
1324,-0.22026655077934265,6.617573261260986,7.067683219909668,381863713242404,OTHER
1325,-0.35434186458587646,6.502651691436768,7.0772600173950195,381863733322578,OTHER
1326,-0.10534487664699554,6.560112476348877,7.259219646453857,381863753402753,OTHER
1327,-0.028730420395731926,6.502651691436768,7.000645637512207,381863773482928,OTHER
1328,-0.1628057211637497,6.4834980964660645,7.2113356590271,381863793563102,OTHER
1329,-0.2298433631658554,6.301538944244385,7.144298076629639,381863813643277,OTHER
1330,-0.4118026793003082,6.215347766876221,7.029376029968262,381863833723452,OTHER
1331,-0.28730419278144836,6.1770405769348145,6.9910688400268555,381863853803627,OTHER
1332,-0.09576806426048279,6.1770405769348145,7.383718013763428,381863873883802,OTHER
1333,-0.019153613597154617,6.138733386993408,7.450755596160889,381863893963976,OTHER
1334,0.20111294090747833,6.0621185302734375,7.536946773529053,381863914044151,OTHER
1335,-0.009576806798577309,5.995080947875977,7.469909191131592,381863934124326,OTHER
1336,-0.13407529890537262,5.822698593139648,7.594407558441162,381863954204501,OTHER
1337,-0.009576806798577309,5.736507415771484,8.092401504516602,381863974284675,OTHER
1338,0.2968810200691223,5.793968200683594,8.14028549194336,381863994364850,OTHER
1339,0.28730419278144836,5.669469833374023,8.283937454223633,381864014445025,OTHER
1340,0.19153612852096558,5.564124584197998,8.427590370178223,381864034525200,OTHER
1341,0.2106897532939911,5.497087001800537,8.552088737487793,381864054574858,OTHER
1342,0.2106897532939911,5.372588634490967,8.322244644165039,381864074655033,OTHER
1343,0.17238251864910126,5.410895824432373,8.360552787780762,381864094735207,OTHER
1344,0.31603461503982544,5.315127849578857,8.877699851989746,381864114815382,OTHER
1345,0.22026655077934265,5.114014625549316,9.069235801696777,381864134895557,OTHER
1346,0.06703764945268631,5.018246650695801,9.078812599182129,381864154975731,OTHER
1347,0.22026655077934265,5.018246650695801,8.89685344696045,381864175055907,OTHER
1348,0.181959331035614,5.037400245666504,8.523358345031738,381864195136081,OTHER
1349,0.047884032130241394,4.874594688415527,8.542511940002441,381864215216256,OTHER
1350,0.028730420395731926,4.817133903503418,9.107542991638184,381864235296431,OTHER
1351,0.13407529890537262,4.692635536193848,9.107542991638184,381864255376605,OTHER
1352,-0.1149216815829277,4.577713489532471,8.992621421813965,381864275456781,OTHER
1353,-0.09576806426048279,4.501099109649658,8.868123054504395,381864295536955,OTHER
1354,0.0,4.520252704620361,9.059659004211426,381864315617130,OTHER
1355,0.028730420395731926,4.51067590713501,8.9064302444458,381864335697305,OTHER
1356,-0.009576806798577309,4.338293552398682,8.887276649475098,381864355777479,OTHER
1357,-0.2298433631658554,4.20421838760376,8.877699851989746,381864375857655,OTHER
1358,-0.181959331035614,4.223371982574463,8.858546257019043,381864395937829,OTHER
1359,-0.1628057211637497,4.146757125854492,8.83939266204834,381864415987487,OTHER
1360,-0.2106897532939911,4.146757125854492,8.916007041931152,381864436067661,OTHER
1361,-0.3256114423274994,3.9169139862060547,8.858546257019043,381864456147837,OTHER
1362,-0.181959331035614,4.060565948486328,8.47547435760498,381864476228011,OTHER
1363,-0.20111294090747833,3.8594532012939453,8.26478385925293,381864496308186,OTHER
1364,-0.17238251864910126,3.7828385829925537,8.858546257019043,381864516388361,OTHER
1365,-0.1628057211637497,3.648763418197632,9.327810287475586,381864536468535,OTHER
1366,-0.15322890877723694,3.5242648124694824,9.481039047241211,381864556548711,OTHER
1367,0.07661445438861847,3.734954595565796,9.289502143859863,381864576628885,OTHER
1368,0.08619125932455063,3.6391866207122803,8.916007041931152,381864596709060,OTHER
1369,-0.12449848651885986,3.2752678394317627,9.184157371520996,381864616789235,OTHER
1370,-0.2585737705230713,3.1220390796661377,9.193734169006348,381864636869409,OTHER
1371,-0.24899697303771973,3.093308687210083,9.423578262329102,381864656949585,OTHER
1372,-0.09576806426048279,2.940079689025879,9.710882186889648,381864677029759,OTHER
1373,-0.10534487664699554,2.8443117141723633,9.66299819946289,381864697109934,OTHER
1374,-0.05746084079146385,2.6144683361053467,9.59596061706543,381864717190109,OTHER
1375,-0.19153612852096558,2.5091233253479004,9.787496566772461,381864737270283,OTHER
1376,-0.2106897532939911,2.432508945465088,9.730035781860352,381864757350459,OTHER
1377,-0.2968810200691223,2.3558945655822754,9.366117477416992,381864777430633,OTHER
1378,-0.15322890877723694,2.2601263523101807,9.53849983215332,381864797510808,OTHER
1379,-0.09576806426048279,2.0207061767578125,9.615114212036133,381864817590983,OTHER
1380,-0.2106897532939911,1.8195933103561401,9.77791976928711,381864837671157,OTHER
1381,-0.24899697303771973,1.5897499322891235,9.84495735168457,381864857751332,OTHER
1382,-0.2106897532939911,1.5514427423477173,9.96945571899414,381864877831507,OTHER
1383,-0.05746084079146385,1.6089035272598267,10.093954086303711,381864897911682,OTHER
1384,-0.028730420395731926,1.3694833517074585,10.199298858642578,381864917991857,OTHER
1385,-0.019153613597154617,1.235408067703247,10.199298858642578,381864938072031,OTHER
1386,-0.17238251864910126,0.9576807022094727,10.228029251098633,381864958152206,OTHER
1387,-0.28730419278144836,0.7948749661445618,10.20887565612793,381864978232381,OTHER
1388,-0.20111294090747833,0.7182605266571045,10.371682167053223,381864998312556,OTHER
1389,-0.047884032130241394,0.689530074596405,10.160991668701172,381865018362213,OTHER
1390,0.06703764945268631,0.689530074596405,10.170568466186523,381865038442388,OTHER
1391,0.019153613597154617,0.727837324142456,10.189722061157227,381865058522563,OTHER
1392,0.038307227194309235,0.5363011956214905,10.15141487121582,381865078602738,OTHER
1393,-0.15322890877723694,0.3256114423274994,10.199298858642578,381865098682913,OTHER
1394,-0.028730420395731926,0.363918662071228,10.304644584655762,381865118763088,OTHER
1395,0.08619125932455063,0.45010992884635925,10.093954086303711,381865138843262,OTHER
1396,-0.08619125932455063,0.3734954595565796,9.720458984375,381865158923437,OTHER
1397,-0.24899697303771973,0.2298433631658554,9.442731857299805,381865179003612,OTHER
1398,-0.24899697303771973,0.24899697303771973,9.165003776550293,381865199083787,OTHER
1399,-0.019153613597154617,0.38307225704193115,8.973467826843262,381865219163962,OTHER
1400,0.3064578175544739,0.6416460275650024,8.465897560119629,381865239244136,OTHER
1401,0.5937620401382446,0.9193734526634216,7.603984832763672,381865259324311,OTHER
1402,1.015141487121582,1.3120225667953491,7.048529624938965,381865279404486,OTHER
1403,1.4269442558288574,1.6376339197158813,6.799532890319824,381865299484660,OTHER
1404,1.4173674583435059,1.5610195398330688,7.000645637512207,381865319564836,OTHER
1405,1.292868971824646,1.1300631761550903,7.163451671600342,381865339645010,OTHER
1406,1.292868971824646,0.5267243981361389,6.550535678863525,381865359725185,OTHER
1407,0.8427590131759644,0.1149216815829277,5.5545477867126465,381865379805360,OTHER
1408,0.689530074596405,0.09576806426048279,5.094861030578613,381865399885534,OTHER
1409,0.6607996821403503,0.24899697303771973,4.95120906829834,381865419965710,OTHER
1410,0.6129156351089478,0.2968810200691223,5.037400245666504,381865440045884,OTHER
1411,1.1683704853057861,0.5650315880775452,6.1770405769348145,381865460126058,OTHER
1412,1.6759412288665771,0.689530074596405,7.843404769897461,381865480206234,OTHER
1413,2.0398597717285156,0.2298433631658554,8.9064302444458,381865500286408,OTHER
1414,1.9728221893310547,-0.7852981686592102,9.241618156433105,381865520366584,OTHER
1415,0.8331822156906128,-1.1300631761550903,10.429142951965332,381865540446758,OTHER
1416,1.3694833517074585,-1.4939818382263184,11.405977249145508,381865560526932,OTHER
1417,1.455674648284912,-1.580173134803772,11.712434768676758,381865580607108,OTHER
1418,2.2218191623687744,-1.3215993642807007,12.143390655517578,381865600687282,OTHER
1419,2.5474305152893066,-1.455674648284912,13.330915451049805,381865620767458,OTHER
1420,1.6759412288665771,-1.7812861204147339,15.322891235351562,381865640817114,OTHER
1421,1.8962076902389526,-1.599326729774475,16.95094871520996,381865660897290,OTHER
1422,1.8483237028121948,-1.2258312702178955,16.903064727783203,381865680977464,OTHER
1423,2.030282974243164,-0.9481038451194763,15.294160842895508,381865701057640,OTHER
1424,2.183511972427368,-0.6320692300796509,12.746729850769043,381865721137814,OTHER
1425,2.3271639347076416,-0.38307225704193115,10.860098838806152,381865741217989,OTHER
1426,1.9536685943603516,-0.08619125932455063,10.429142951965332,381865761298164,OTHER
1427,2.7006595134735107,-0.6799532771110535,10.371682167053223,381865781378338,OTHER
1428,3.3231520652770996,-1.1013327836990356,10.687716484069824,381865801458514,OTHER
1429,3.8594532012939453,-0.9193734526634216,11.042057991027832,381865821538688,OTHER
1430,3.9264907836914062,-1.0438719987869263,10.78348445892334,381865841618863,OTHER
1431,3.8594532012939453,-1.0342950820922852,10.113107681274414,381865861699038,OTHER
1432,3.1890766620635986,-0.7086837291717529,9.66299819946289,381865881779212,OTHER
1433,3.44765043258667,-0.9193734526634216,9.260771751403809,381865901859387,OTHER
1434,3.361459255218506,-1.3215993642807007,8.944737434387207,381865921939562,OTHER
