id,ax,ay,az,timestamp
0,0.076614454388618469,-0.31603461503982544,10.007762908935547,381837129575176
1,0.0095768067985773087,-0.35434186458587646,9.9598789215087891,381837149655351
2,-0.019153613597154617,-0.32561144232749939,10.02691650390625,381837169735525
3,-0.028730420395731926,-0.23942017555236816,10.007762908935547,381837189815701
4,-0.028730420395731926,-0.31603461503982544,10.02691650390625,381837209895875
5,-0.019153613597154617,-0.37349545955657959,10.036493301391602,381837229976050
6,-0.019153613597154617,-0.31603461503982544,10.017339706420898,381837250025708
7,-0.019153613597154617,-0.4405331015586853,10.007762908935547,381837270105883
8,-0.028730420395731926,-0.29688102006912231,10.007762908935547,381837290186057
9,0.019153613597154617,-0.31603461503982544,10.007762908935547,381837310266233
10,0,-0.28730419278144836,9.9119949340820312,381837330346407
11,-0.057460840791463852,-0.35434186458587646,9.9790325164794922,381837350426581
12,-0.028730420395731926,-0.30645781755447388,9.9790325164794922,381837370506757
13,0.047884032130241394,-0.32561144232749939,10.093954086303711,381837390556415
14,0.038307227194309235,-0.36391866207122803,9.8641109466552734,381837410636589
15,0.057460840791463852,-0.30645781755447388,9.9790325164794922,381837430716764
16,0.0095768067985773087,-0.31603461503982544,9.9598789215087891,381837450796939
17,-0.028730420395731926,-0.32561144232749939,9.9694557189941406,381837470877113
18,-0.076614454388618469,-0.2777273952960968,9.9790325164794922,381837490957289
19,-0.028730420395731926,-0.30645781755447388,9.9215717315673828,381837511037463
20,0,-0.30645781755447388,10.007762908935547,381837531117637
21,0.019153613597154617,-0.33518823981285095,9.9981861114501953,381837551197813
22,0.047884032130241394,-0.33518823981285095,10.007762908935547,381837571277987
23,0,-0.26815059781074524,9.9886093139648438,381837591358163
24,0.047884032130241394,-0.30645781755447388,10.065223693847656,381837611407820
25,-0.019153613597154617,-0.2777273952960968,10.02691650390625,381837631487995
26,-0.0095768067985773087,-0.31603461503982544,9.9694557189941406,381837651568169
27,0,-0.26815059781074524,9.9981861114501953,381837671648345
28,0.019153613597154617,-0.36391866207122803,9.9407253265380859,381837691728519
29,0.0095768067985773087,-0.36391866207122803,10.017339706420898,381837711808694
30,0.0095768067985773087,-0.29688102006912231,10.036493301391602,381837731888869
31,-0.076614454388618469,-0.31603461503982544,9.9215717315673828,381837751969043
32,0.076614454388618469,-0.25857377052307129,10.065223693847656,381837772049219
33,0,-0.36391866207122803,9.9981861114501953,381837792129393
34,-0.12449848651885986,-0.82360535860061646,9.8353805541992188,381837812209568
35,0.29688102006912231,-3.6774938106536865,9.9886093139648438,381837832289743
36,0.028730420395731926,-1.5418659448623657,9.9503021240234375,381837852369917
37,0.6703764796257019,-1.5035586357116699,9.9981861114501953,381837872450093
38,0.62249243259429932,-1.0247182846069336,10.122684478759766,381837892499751
39,0.33518823981285095,-1.072602391242981,10.084377288818359,381837912579925
40,0.38307225704193115,-1.3311761617660522,10.074800491333008,381837932660099
41,-0.42137950658798218,-0.54587799310684204,10.572794914245605,381837952740275
42,-0.4405331015586853,-0.74699091911315918,10.20887565612793,381837972820449
43,-0.62249243259429932,-0.65122288465499878,9.9119949340820312,381837992900624
44,-0.47884035110473633,-0.43095630407333374,9.8641109466552734,381838012980799
45,-0.82360535860061646,-0.6703764796257019,9.6438446044921875,381838033060973
46,-0.80445176362991333,-0.67995327711105347,10.113107681274414,381838053141149
47,-0.47884035110473633,-0.38307225704193115,9.9119949340820312,381838073221323
48,-0.47884035110473633,1.2354080677032471,10.141838073730469,381838093301498
49,-0.28730419278144836,1.3599065542221069,9.8641109466552734,381838113351155
50,-0.1149216815829277,0.70868372917175293,9.9694557189941406,381838133431331
51,-0.10534487664699554,0.48841714859008789,9.9598789215087891,381838153511505
52,0.06703764945268631,0.56503158807754517,9.6534214019775391,381838173591680
53,0.56503158807754517,1.4939818382263184,9.9407253265380859,381838193671855
54,0.66079968214035034,1.2545616626739502,9.9886093139648438,381838213752029
55,0.63206923007965088,1.2545616626739502,10.390835762023926,381838233832205
56,0.028730420395731926,-0.3926490843296051,9.9981861114501953,381838253912379
57,0.047884032130241394,-0.32561144232749939,9.9119949340820312,381838273992554
58,0.15322890877723694,-0.30645781755447388,10.160991668701172,381838294072729
59,0.076614454388618469,-0.31603461503982544,10.055646896362305,381838314152904
60,0.038307227194309235,-0.28730419278144836,10.017339706420898,381838334233079
61,0.028730420395731926,-0.36391866207122803,9.9598789215087891,381838354282736
62,0,-0.32561144232749939,10.02691650390625,381838374362911
63,-0.038307227194309235,-0.2777273952960968,10.02691650390625,381838394443086
64,0.057460840791463852,-0.34476503729820251,10.017339706420898,381838414523261
65,-0.038307227194309235,-0.30645781755447388,10.017339706420898,381838434603435
66,-0.0095768067985773087,-0.2777273952960968,10.007762908935547,381838454683610
67,0.0095768067985773087,-0.32561144232749939,9.9694557189941406,381838474763785
68,0.019153613597154617,-0.31603461503982544,9.9981861114501953,381838494843960
69,0.028730420395731926,-0.2777273952960968,9.8928413391113281,381838514924135
70,0.028730420395731926,-0.33518823981285095,9.9311485290527344,381838535004309
71,0.095768064260482788,-0.34476503729820251,10.017339706420898,381838555084484
72,0.038307227194309235,-0.34476503729820251,10.017339706420898,381838575164659
73,0.047884032130241394,-0.33518823981285095,9.9694557189941406,381838595244834
74,0.047884032130241394,-0.31603461503982544,10.055646896362305,381838615294491
75,0.028730420395731926,-0.30645781755447388,9.9790325164794922,381838635374666
76,0.06703764945268631,-0.35434186458587646,9.9790325164794922,381838655454841
77,0.06703764945268631,-0.2777273952960968,10.02691650390625,381838675535016
78,0.057460840791463852,-0.2777273952960968,9.8832645416259766,381838695615191
79,0.019153613597154617,-0.24899697303771973,9.9790325164794922,381838715695365
80,-0.0095768067985773087,-0.29688102006912231,10.017339706420898,381838735775540
81,-0.028730420395731926,-0.31603461503982544,10.007762908935547,381838755855715
82,0,-0.3926490843296051,9.9886093139648438,381838775935890
83,-0.028730420395731926,-0.34476503729820251,10.074800491333008,381838796016064
84,0.057460840791463852,-0.36391866207122803,9.9981861114501953,381838816096240
85,0.019153613597154617,-0.30645781755447388,9.9790325164794922,381838836176414
86,0.06703764945268631,-0.26815059781074524,10.017339706420898,381838856256589
87,0.076614454388618469,-0.25857377052307129,9.9215717315673828,381838876336764
88,0.047884032130241394,-0.32561144232749939,9.9790325164794922,381838896416938
89,0.038307227194309235,-0.31603461503982544,10.065223693847656,381838916497114
90,1.1875240802764893,0.086191259324550629,10.074800491333008,381838936577288
91,2.1547815799713135,0.58418524265289307,10.065223693847656,381838956657463
92,3.0358476638793945,0.61291563510894775,10.007762908935547,381838976737638
93,0.59376204013824463,-1.1013327836990356,11.875240325927734,381838996787296
94,7.2113356590270996,-0.18195933103561401,11.587936401367188,381839016867470
95,0.69910687208175659,-2.0111293792724609,12.737153053283691,381839036947645
96,-1.0055646896362305,-1.436521053314209,18.358737945556641,381839057027820
97,4.0605659484863281,2.1835119724273682,19.661184310913086,381839077107994
98,0.92895025014877319,0.51714754104614258,14.863204002380371,381839097188170
99,1.3599065542221069,-0.65122288465499878,13.838485717773438,381839117268344
100,0.1149216815829277,1.6663644313812256,10.47702693939209,381839137348519
101,2.2984335422515869,3.6391866207122803,9.8353805541992188,381839157428694
102,2.6144683361053467,3.6966474056243896,8.0924015045166016,381839177508868
103,2.7485435009002686,4.2042183876037598,8.1690158843994141,381839197589044
104,2.8347349166870117,3.7062242031097412,8.0253639221191406,381839217669218
105,1.4748282432556152,2.6910827159881592,7.4411787986755371,381839237749392
106,0.35434186458587646,2.7293899059295654,6.8761472702026367,381839257829568
107,-0.78529816865921021,2.518700122833252,7.0964136123657227,381839277909742
108,-0.33518823981285095,3.0071172714233398,8.6287031173706055,381839297989918
109,-0.038307227194309235,3.1316158771514893,8.9543142318725586,381839318070092
110,0.80445176362991333,3.4763808250427246,9.2033109664916992,381839338150267
111,1.1204863786697388,3.0454244613647461,8.8968534469604492,381839358230442
112,-0.77572137117385864,1.9632453918457031,7.4028716087341309,381839378310616
113,-2.2409727573394775,2.7198131084442139,7.7380599975585938,381839398390792
114,-2.9305028915405273,3.0645780563354492,7.1538748741149902,381839418470966
115,-3.093308687210083,3.2178070545196533,6.6654577255249023,381839438551141
116,-1.6855180263519287,3.667917013168335,7.0964136123657227,381839458631316
117,-1.723825216293335,4.309563159942627,9.3756942749023438,381839478711490
118,-2.4325089454650879,4.1850647926330566,7.6997528076171875,381839498791665
119,-3.88818359375,2.4899697303771973,6.5505356788635254,381839518871840
120,-4.6926355361938477,2.0494365692138672,5.3534350395202637,381839538952015
121,-5.5066637992858887,2.1452047824859619,6.1674637794494629,381839559032190
122,-7.508216381072998,2.1356279850006104,4.6734819412231445,381839579081848
123,-4.548983097076416,4.1276035308837891,11.961431503295898,381839599162022
124,-2.1835119724273682,5.1044378280639648,13.455413818359375,381839619242197
125,-3.4380736351013184,4.462791919708252,6.694188117980957,381839639322372
126,-3.667917013168335,4.2616791725158691,6.7516489028930664,381839659402546
127,-2.2409727573394775,4.5777134895324707,9.2224645614624023,381839679482721
128,-2.6144683361053467,3.7732617855072021,8.485051155090332,381839699562896
129,-4.8937482833862305,3.1603462696075439,6.694188117980957,381839719643071
130,-6.0046577453613281,3.466804027557373,8.1498622894287109,381839739723246
131,-5.5832781791687012,4.2712559700012207,8.6861639022827148,381839759803420
132,-4.1563339233398438,4.7788267135620117,7.5465235710144043,381839779853078
133,-0.47884035110473633,6.2153477668762207,5.6598930358886719,381839799933253
134,-2.7102363109588623,4.4819455146789551,5.9663505554199219,381839820013428
135,-4.6447510719299316,4.6543278694152832,6.0238113403320312,381839840093603
136,-5.0661306381225586,5.0757074356079102,6.2632317543029785,381839860173777
137,-5.0852842330932617,5.2097830772399902,6.6463041305541992,381839880253952
138,-4.663905143737793,5.8131217956542969,6.339846134185791,381839900334127
139,-4.7979803085327148,5.7460842132568359,6.2728085517883301,381839920414302
140,-5.2480902671813965,5.8035449981689453,5.7939682006835938,381839940494477
141,-5.6120085716247559,5.7269306182861328,5.4970870018005371,381839960574651
142,-5.5449709892272949,5.9567737579345703,5.4492030143737793,381839980654826
143,-5.1906294822692871,6.0429649353027344,5.5353941917419434,381840000735001
144,-5.4875102043151855,6.3494229316711426,4.9224786758422852,381840020815176
145,-5.9184665679931641,6.4451909065246582,4.5010991096496582,381840040895351
146,-6.2249245643615723,6.9814920425415039,4.4436383247375488,381840060975525
147,-6.3494229316711426,7.1634516716003418,3.7828385829925537,381840081055700
148,-6.3877301216125488,6.8665704727172852,3.466804027557373,381840101135875
149,-6.5218052864074707,6.7037649154663086,2.9783868789672852,381840121216049
150,-6.3589997291564941,6.9240312576293945,3.1603462696075439,381840141296225
151,-6.2919621467590332,6.6846113204956055,2.8634653091430664,381840161376399
152,-6.406883716583252,6.0812721252441406,2.231395959854126,381840181456574
153,-6.2632317543029785,5.7843914031982422,1.8866308927536011,381840201536749
154,-5.8705825805664062,5.8514289855957031,2.4995465278625488,381840221616923
155,-6.4834980964660645,5.985504150390625,1.3024457693099976,381840241697099
156,-6.5984196662902832,6.1483101844787598,-0.84275901317596436,381840261777273
157,-5.7748146057128906,6.6079964637756348,-0.77572137117385864,381840281826931
158,-5.2959742546081543,6.7708024978637695,-0.15322890877723694,381840301907105
159,-4.8937482833862305,6.6558809280395508,-0.20111294090747833,381840321987281
160,-5.0278234481811523,6.2632317543029785,-0.17238251864910126,381840342067455
161,-5.3534350395202637,6.1961941719055176,-0.94810384511947632,381840362147630
162,-3.4955344200134277,10.429142951965332,0.086191259324550629,381840382227805
163,-5.257667064666748,10.706870079040527,-0.57460838556289673,381840402307979
164,-4.3766007423400879,14.413094520568848,-1.6663644313812256,381840422388155
165,-5.2959742546081543,10.773907661437988,-4.2233719825744629,381840442468329
166,-8.4084367752075195,6.3877301216125488,-5.6407394409179688,381840462548505
167,-7.8242511749267578,5.0182466506958008,-3.6774938106536865,381840482628679
168,-7.3358340263366699,7.9679031372070312,0.52672439813613892,381840502708853
169,-8.485051155090332,8.1402854919433594,0.28730419278144836,381840522789029
170,-6.9048776626586914,7.6805992126464844,0.076614454388618469,381840542869203
171,-5.6598930358886719,7.0485296249389648,0.68953007459640503,381840562949378
172,-5.3630118370056152,6.5696892738342285,0.88106620311737061,381840583029553
173,-5.3917422294616699,6.694188117980957,1.015141487121582,381840603109727
174,-6.0046577453613281,6.2919621467590332,1.0821791887283325,381840623189903
175,-6.1578869819641113,6.4451909065246582,1.2066776752471924,381840643270077
176,-7.6614456176757812,6.1961941719055176,0.48841714859008789,381840663319735
177,-7.4890627861022949,6.7899560928344727,-0.20111294090747833,381840683399909
178,-6.9336080551147461,7.6805992126464844,0.18195933103561401,381840703480085
179,-7.2496428489685059,7.3166804313659668,-0.37349545955657959,381840723560259
180,-8.8106622695922852,2.164358377456665,-1.8962076902389526,381840743640434
181,-5.8418521881103516,5.5737013816833496,5.9088897705078125,381840763720609
182,-4.5777134895324707,5.9280433654785156,6.5409588813781738,381840783800783
183,-7.4316020011901855,3.1890766620635986,-1.6472107172012329,381840803880959
184,-7.7476367950439453,4.6351742744445801,-2.2888567447662354,381840823961133
185,-6.3494229316711426,6.6846113204956055,-0.61291563510894775,381840844041308
186,-6.406883716583252,7.3741412162780762,-0.69910687208175659,381840864121483
187,-7.2113356590270996,7.1538748741149902,0.12449848651885986,381840884201657
188,-7.2400660514831543,7.000645637512207,-0.30645781755447388,381840904281832
189,-6.1578869819641113,7.2879500389099121,0.46926352381706238,381840924362007
190,-5.5545477867126465,7.4794859886169434,1.1683704853057861,381840944442182
191,-5.5832781791687012,6.8857240676879883,1.5035586357116699,381840964522357
192,-6.8186864852905273,5.4970870018005371,0.10534487664699554,381840984602532
193,-4.8362874984741211,4.7788267135620117,-0.057460840791463852,381841004682706
194,-4.041412353515625,5.1140146255493164,2.6048915386199951,381841024762881
195,-2.2601263523101807,6.406883716583252,2.7581202983856201,381841044812539
196,0.58418524265289307,6.3111157417297363,1.6759412288665771,381841064892714
197,2.2984335422515869,6.1291561126708984,2.3080103397369385,381841084972889
198,5.7365074157714844,9.2799253463745117,1.580173134803772,381841105053063
199,10.275913238525391,13.407529830932617,-5.9184665679931641,381841125133238
200,4.5872902870178223,12.459425926208496,-11.061211585998535,381841145213413
201,-0.90979665517807007,14.757859230041504,-2.1068975925445557,381841165293588
202,-5.6503162384033203,21.87342643737793,5.2002062797546387,381841185373762
203,-8.3318214416503906,17.515979766845703,3.6966474056243896,381841205453937
204,-6.9336080551147461,8.7340478897094727,-1.6950948238372803,381841225534112
205,-3.5242648124694824,6.3494229316711426,-2.1547815799713135,381841245614287
206,-2.585737943649292,7.4507555961608887,0.28730419278144836,381841265694462
207,-2.6623523235321045,9.7396125793457031,0.24899697303771973,381841285774636
208,-2.7581202983856201,10.342951774597168,0.26815059781074524,381841305854811
209,-2.5474305152893066,9.567230224609375,0.38307225704193115,381841325934986
210,-2.5282769203186035,9.1171197891235352,-0.1149216815829277,381841346015160
211,-2.9209260940551758,9.1171197891235352,-0.21068975329399109,381841366095336
212,-2.7581202983856201,9.1554269790649414,0.076614454388618469,381841386175510
213,-3.6870706081390381,7.4028716087341309,1.6950948238372803,381841406225168
214,-2.7293899059295654,9.8162269592285156,-0.97683429718017578,381841426305343
215,-3.466804027557373,9.8641109466552734,0.37349545955657959,381841446385518
216,-2.6240451335906982,9.8449573516845703,0.12449848651885986,381841466465692
217,-2.6431987285614014,9.6725749969482422,0.14365209639072418,381841486545868
218,-2.6431987285614014,9.5193462371826172,0.31603461503982544,381841506626042
219,-2.5761611461639404,9.1458501815795898,0.42137950658798218,381841526706217
220,-2.365471363067627,9.3278102874755859,0.42137950658798218,381841546786392
221,-2.4420857429504395,9.2033109664916992,0.29688102006912231,381841566866566
222,-2.5665841102600098,9.2416181564331055,0.047884032130241394,381841586946742
223,-2.3080103397369385,9.5384998321533203,-0.019153613597154617,381841607026916
224,-2.5282769203186035,9.4618854522705078,0.20111294090747833,381841627107090
225,-2.6719291210174561,9.3373870849609375,-0.038307227194309235,381841647187266
226,-2.6815059185028076,9.2033109664916992,0.21068975329399109,381841667267440
227,-2.4803929328918457,9.7108821868896484,-0.16280572116374969,381841687347616
228,-2.5953147411346436,9.6629981994628906,0.0095768067985773087,381841707427790
229,0.83318221569061279,11.712434768676758,-3.1794998645782471,381841727507964
230,-4.663905143737793,7.8242511749267578,2.3846249580383301,381841747588140
231,-2.2984335422515869,9.2703485488891602,-0.20111294090747833,381841767637798
232,-2.8251581192016602,9.0883893966674805,0.60333883762359619,381841787717972
233,-2.4612393379211426,9.41400146484375,0.086191259324550629,381841807798146
234,-2.8060042858123779,9.3182334899902344,0.1149216815829277,381841827878322
235,-2.873042106628418,9.3469638824462891,-0.047884032130241394,381841847958496
236,-2.7868506908416748,9.3278102874755859,0.06703764945268631,381841868038672
237,-2.6815059185028076,9.3086557388305664,0.18195933103561401,381841888118846
238,-2.6048915386199951,9.3086557388305664,0.17238251864910126,381841908199020
239,-2.7581202983856201,9.3278102874755859,-0.047884032130241394,381841928279196
240,-2.6910827159881592,9.5193462371826172,-0.06703764945268631,381841948359370
241,-2.6623523235321045,9.4331550598144531,-0.06703764945268631,381841968439545
242,-2.6048915386199951,9.5193462371826172,0.028730420395731926,381841988519720
243,-2.5665841102600098,9.4331550598144531,0.14365209639072418,381842008599894
244,-2.3942017555236816,9.2990789413452148,0.16280572116374969,381842028680070
245,-2.3846249580383301,9.2895021438598633,0.10534487664699554,381842048760244
246,-2.365471363067627,9.3852710723876953,0.14365209639072418,381842068840419
247,-2.3846249580383301,9.4523086547851562,0.13407529890537262,381842088890077
248,-2.1547815799713135,9.4523086547851562,-0.019153613597154617,381842108970252
249,-2.0877439975738525,9.3852710723876953,-0.21068975329399109,381842129050426
250,-1.6089035272598267,9.6725749969482422,-0.86191260814666748,381842149130602
251,-2.2888567447662354,9.3948478698730469,-0.61291563510894775,381842169210776
252,-2.2122423648834229,9.3756942749023438,-0.59376204013824463,381842189290951
253,-2.3846249580383301,9.3469638824462891,-0.59376204013824463,381842209371126
254,-2.3942017555236816,9.3948478698730469,-0.84275901317596436,381842229451300
255,-2.3558945655822754,9.2990789413452148,-0.43095630407333374,381842249531475
256,-2.7964274883270264,9.097966194152832,-0.48841714859008789,381842269611650
257,-2.6910827159881592,9.1075429916381836,-1.3503297567367554,381842289691825
258,-2.6815059185028076,9.2607717514038086,-1.8100165128707886,381842309772000
259,-2.6048915386199951,9.2320413589477539,-1.4173674583435059,381842329852174
260,-2.6623523235321045,9.251194953918457,-1.3790601491928101,381842349932349
261,-2.7485435009002686,9.2033109664916992,-1.5514427423477173,381842370012524
262,-2.6815059185028076,9.251194953918457,-1.522712230682373,381842390092699
263,-2.518700122833252,9.0405054092407227,-1.6184803247451782,381842410172873
264,-2.5570073127746582,9.0309286117553711,-1.8962076902389526,381842430253048
265,-2.7006595134735107,9.2224645614624023,-2.2697031497955322,381842450333223
266,-2.7868506908416748,9.2799253463745117,-1.8579005002975464,381842470413398
267,-2.8921957015991211,9.3469638824462891,-1.9345149993896484,381842490493573
268,-2.6623523235321045,9.1937341690063477,-1.7908629179000854,381842510543230
269,-2.7102363109588623,8.8872766494750977,-1.8291701078414917,381842530623405
270,-2.518700122833252,8.7244710922241211,-1.944091796875,381842550703580
271,-2.4133553504943848,8.7340478897094727,-2.2218191623687744,381842570783755
272,-2.3271639347076416,8.8106622695922852,-2.3558945655822754,381842590863930
273,-2.5091233253479004,8.705317497253418,-2.3750481605529785,381842610944105
274,-2.7772738933563232,8.7148942947387695,-2.4133553504943848,381842631024279
275,-2.738966703414917,8.6095495223999023,-2.0398597717285156,381842651104454
276,-2.585737943649292,8.5233583450317383,-1.7717092037200928,381842671184629
277,-2.451662540435791,8.4946279525756836,-1.6663644313812256,381842691264803
278,-2.4133553504943848,8.5233583450317383,-1.580173134803772,381842711344979
279,-2.3080103397369385,8.5903959274291992,-1.7908629179000854,381842731425153
280,-2.3463177680969238,8.8681230545043945,-1.9728221893310547,381842751505328
281,-2.3463177680969238,9.097966194152832,-1.9153614044189453,381842771585503
282,-2.4899697303771973,9.3182334899902344,-1.7142484188079834,381842791665677
283,-2.4995465278625488,9.5480766296386719,-1.5131354331970215,381842811745853
284,-2.4803929328918457,9.8641109466552734,-1.6472107172012329,381842831826027
285,-2.3367409706115723,9.8449573516845703,-2.1739351749420166,381842851906201
286,-2.2026655673980713,9.7587661743164062,-2.1739351749420166,381842871986377
287,-2.0015525817871094,9.5863838195800781,-1.723825216293335,381842892066551
288,-1.8483237028121948,9.4714622497558594,-1.4844050407409668,381842912146727
289,-1.8674772977828979,9.2990789413452148,-1.4269442558288574,381842932226901
290,-1.9345149993896484,9.0883893966674805,-1.6280571222305298,381842952307075
291,-1.9919757843017578,9.011775016784668,-1.8195933103561401,381842972387251
292,-2.31758713722229,9.0883893966674805,-1.7908629179000854,381842992467425
293,-2.5761611461639404,9.2224645614624023,-1.7525556087493896,381843012547601
294,-2.7868506908416748,9.2033109664916992,-1.6089035272598267,381843032627775
295,-2.7964274883270264,9.165003776550293,-1.5418659448623657,381843052707949
296,-2.4995465278625488,9.2128877639770508,-1.5131354331970215,381843072757607
297,-2.4420857429504395,9.2224645614624023,-1.6759412288665771,381843092837783
298,-2.4899697303771973,9.2799253463745117,-1.6472107172012329,381843112917957
299,-2.3846249580383301,9.2128877639770508,-1.6855180263519287,381843132998132
300,-2.31758713722229,9.2895021438598633,-1.5610195398330688,381843153078307
301,-2.2122423648834229,9.3661174774169922,-1.3215993642807007,381843173158481
302,-2.2505495548248291,9.3469638824462891,-1.2641384601593018,381843193238657
303,-2.164358377456665,9.1841573715209961,-1.2258312702178955,381843213318831
304,-2.2888567447662354,9.1554269790649414,-1.1300631761550903,381843233399006
305,-2.3080103397369385,9.2128877639770508,-1.015141487121582,381843253479181
306,-2.2697031497955322,9.4044246673583984,-0.93852704763412476,381843273559355
307,-2.164358377456665,9.4810390472412109,-0.75656771659851074,381843293639530
308,-2.0590133666992188,9.5289230346679688,-0.69910687208175659,381843313719705
309,-1.9057846069335938,9.2990789413452148,-0.57460838556289673,381843333799880
310,-1.7908629179000854,9.2799253463745117,-0.54587799310684204,381843353880055
311,-1.9536685943603516,9.3278102874755859,-0.60333883762359619,381843373960229
312,-2.1739351749420166,9.5001926422119141,-0.52672439813613892,381843394040404
313,-2.2697031497955322,9.5289230346679688,-0.57460838556289673,381843414120579
314,-2.2409727573394775,9.5289230346679688,-0.45968672633171082,381843434200754
315,-2.3271639347076416,9.5097694396972656,-0.43095630407333374,381843454280929
316,-2.3558945655822754,9.3565406799316406,-0.31603461503982544,381843474361103
317,-2.4995465278625488,9.1745805740356445,-0.32561144232749939,381843494441278
318,-2.6431987285614014,9.2607717514038086,-0.31603461503982544,381843514521453
319,-2.7676970958709717,9.1937341690063477,-0.50757074356079102,381843534601628
320,-2.7676970958709717,9.2033109664916992,-0.52672439813613892,381843554681802
321,-2.7485435009002686,9.2799253463745117,-0.58418524265289307,381843574792494
322,-2.5570073127746582,9.3852710723876953,-0.47884035110473633,381843594872669
323,-2.4325089454650879,9.4714622497558594,-0.35434186458587646,381843614952844
324,-2.2218191623687744,9.4331550598144531,-0.33518823981285095,381843635033018
325,-2.1260511875152588,9.4044246673583984,-0.24899697303771973,381843655113194
326,-2.1356279850006104,9.3852710723876953,-0.3926490843296051,381843675193368
327,-2.1835119724273682,9.3373870849609375,-0.37349545955657959,381843695273542
328,-2.231395959854126,9.3661174774169922,-0.35434186458587646,381843715353718
329,-2.2697031497955322,9.4235782623291016,-0.38307225704193115,381843735433892
330,-2.2888567447662354,9.4235782623291016,-0.42137950658798218,381843755514068
331,-2.2697031497955322,9.3852710723876953,-0.42137950658798218,381843775594242
332,-2.2409727573394775,9.3182334899902344,-0.41180267930030823,381843795674416
333,-2.231395959854126,9.3469638824462891,-0.37349545955657959,381843815754592
334,-2.2026655673980713,9.4427318572998047,-0.43095630407333374,381843835834766
335,-2.2505495548248291,9.4044246673583984,-0.45968672633171082,381843855914942
336,-2.2601263523101807,9.3852710723876953,-0.49799394607543945,381843875995116
337,-2.2218191623687744,9.4235782623291016,-0.49799394607543945,381843896075291
338,-2.2218191623687744,9.4427318572998047,-0.56503158807754517,381843916155466
339,-2.2792799472808838,9.3661174774169922,-0.52672439813613892,381843936235640
340,-2.2601263523101807,9.3182334899902344,-0.46926352381706238,381843956315815
341,-2.2697031497955322,9.4044246673583984,-0.37349545955657959,381843976395990
342,-2.1930887699127197,9.4044246673583984,-0.4405331015586853,381843996476165
343,-2.1356279850006104,9.3852710723876953,-0.45010992884635925,381844016556340
344,-2.164358377456665,9.3565406799316406,-0.47884035110473633,381844036636514
345,-2.1547815799713135,9.4235782623291016,-0.49799394607543945,381844056716689
346,-2.0973207950592041,9.41400146484375,-0.43095630407333374,381844076796864
347,-2.1068975925445557,9.3756942749023438,-0.33518823981285095,381844096846522
348,-2.1547815799713135,9.3565406799316406,-0.35434186458587646,381844116926696
349,-2.1930887699127197,9.3565406799316406,-0.47884035110473633,381844137006871
350,-2.2888567447662354,9.4044246673583984,-0.52672439813613892,381844157087046
351,-2.2409727573394775,9.3852710723876953,-0.3926490843296051,381844177167221
352,-2.1835119724273682,9.4427318572998047,-0.46926352381706238,381844197247396
353,-2.1835119724273682,9.3565406799316406,-0.52672439813613892,381844217327570
354,-2.2601263523101807,9.3661174774169922,-0.45010992884635925,381844237407745
355,-2.2409727573394775,9.3373870849609375,-0.47884035110473633,381844257487920
356,-2.2026655673980713,9.3756942749023438,-0.56503158807754517,381844277568095
357,-2.1930887699127197,9.3756942749023438,-0.45010992884635925,381844297648270
358,-2.2026655673980713,9.3661174774169922,-0.35434186458587646,381844317728444
359,-2.2122423648834229,9.4427318572998047,-0.54587799310684204,381844337808619
360,-2.1835119724273682,9.3661174774169922,-0.50757074356079102,381844357888794
361,-2.164358377456665,9.3565406799316406,-0.45010992884635925,381844377968969
362,-2.1739351749420166,9.4044246673583984,-0.43095630407333374,381844398049143
363,-2.2122423648834229,9.3373870849609375,-0.49799394607543945,381844418129319
364,-2.1547815799713135,9.4235782623291016,-0.48841714859008789,381844438209493
365,-2.231395959854126,9.3373870849609375,-0.4405331015586853,381844458259151
366,-2.1739351749420166,9.3565406799316406,-0.46926352381706238,381844478339326
367,-2.1547815799713135,9.4523086547851562,-0.48841714859008789,381844498419501
368,-2.1260511875152588,9.3565406799316406,-0.48841714859008789,381844518499675
369,-2.1068975925445557,9.3756942749023438,-0.46926352381706238,381844538579850
370,-2.2026655673980713,9.41400146484375,-0.48841714859008789,381844558660025
371,-2.0685901641845703,9.4618854522705078,-0.41180267930030823,381844578740199
372,-2.1739351749420166,9.4235782623291016,-0.43095630407333374,381844598820375
373,-2.1260511875152588,9.41400146484375,-0.45010992884635925,381844618900549
374,-2.1356279850006104,9.3852710723876953,-0.40222588181495667,381844638980724
375,-2.0781669616699219,9.3756942749023438,-0.4405331015586853,381844659060899
376,-2.0973207950592041,9.3661174774169922,-0.4405331015586853,381844679141073
377,-2.1452047824859619,9.41400146484375,-0.38307225704193115,381844699221249
378,-2.1452047824859619,9.41400146484375,-0.51714754104614258,381844719270906
379,-2.1739351749420166,9.41400146484375,-0.43095630407333374,381844739381598
380,-2.1547815799713135,9.4810390472412109,-0.42137950658798218,381844759431255
381,-2.1930887699127197,9.4044246673583984,-0.49799394607543945,381844779511431
382,-2.1547815799713135,9.3469638824462891,-0.48841714859008789,381844799591605
383,-2.1068975925445557,9.3756942749023438,-0.45968672633171082,381844819671780
384,-2.231395959854126,9.4235782623291016,-0.46926352381706238,381844839751955
385,-2.2122423648834229,9.4044246673583984,-0.40222588181495667,381844859832129
386,-2.1835119724273682,9.3756942749023438,-0.47884035110473633,381844879912305
387,-2.231395959854126,9.41400146484375,-0.47884035110473633,381844899992479
388,-2.2505495548248291,9.3565406799316406,-0.48841714859008789,381844920072655
389,-2.1930887699127197,9.4235782623291016,-0.4405331015586853,381844940152829
390,-2.2026655673980713,9.4044246673583984,-0.45010992884635925,381844960202487
391,-2.2409727573394775,9.3469638824462891,-0.46926352381706238,381844980282661
392,-2.2409727573394775,9.3852710723876953,-0.48841714859008789,381845000362837
393,-2.1356279850006104,9.3278102874755859,-0.45010992884635925,381845020443011
394,-2.2218191623687744,9.3948478698730469,-0.41180267930030823,381845040523185
395,-2.2984335422515869,9.3661174774169922,-0.45968672633171082,381845060603361
396,-2.1452047824859619,9.3565406799316406,-0.4405331015586853,381845080683535
397,-2.164358377456665,9.4235782623291016,-0.41180267930030823,381845100763711
398,-2.164358377456665,9.3756942749023438,-0.47884035110473633,381845120843885
399,-2.2218191623687744,9.41400146484375,-0.45968672633171082,381845140924059
400,-2.1739351749420166,9.3756942749023438,-0.38307225704193115,381845160973717
401,-2.231395959854126,9.4523086547851562,-0.4405331015586853,381845181053893
402,-2.2218191623687744,9.3278102874755859,-0.41180267930030823,381845201134067
403,-2.1739351749420166,9.4618854522705078,-0.42137950658798218,381845221214241
404,-2.1930887699127197,9.4044246673583984,-0.45010992884635925,381845241294417
405,-2.1930887699127197,9.3756942749023438,-0.43095630407333374,381845261374591
406,-2.1452047824859619,9.3565406799316406,-0.47884035110473633,381845281454767
407,-2.1930887699127197,9.41400146484375,-0.4405331015586853,381845301534941
408,-2.1739351749420166,9.4235782623291016,-0.41180267930030823,381845321584599
409,-2.164358377456665,9.4235782623291016,-0.3926490843296051,381845341664773
410,-2.164358377456665,9.41400146484375,-0.33518823981285095,381845361744949
411,-2.2026655673980713,9.3756942749023438,-0.4405331015586853,381845381825123
412,-2.1930887699127197,9.3852710723876953,-0.49799394607543945,381845401905298
413,-2.1260511875152588,9.3469638824462891,-0.51714754104614258,381845421985473
414,-2.2122423648834229,9.4235782623291016,-0.43095630407333374,381845442065647
415,-2.1835119724273682,9.4235782623291016,-0.4405331015586853,381845462145823
416,-2.2122423648834229,9.4427318572998047,-0.48841714859008789,381845482225997
417,-2.2026655673980713,9.3948478698730469,-0.46926352381706238,381845502275655
418,-2.2122423648834229,9.4331550598144531,-0.45968672633171082,381845522355829
419,-2.2409727573394775,9.3756942749023438,-0.45968672633171082,381845542436005
420,-2.2409727573394775,9.3756942749023438,-0.37349545955657959,381845562516179
421,-2.2026655673980713,9.3373870849609375,-0.41180267930030823,381845582596354
422,-2.2601263523101807,9.3373870849609375,-0.42137950658798218,381845602676529
423,-2.164358377456665,9.4618854522705078,-0.46926352381706238,381845622756703
424,-2.1835119724273682,9.3852710723876953,-0.49799394607543945,381845642836879
425,-2.1739351749420166,9.3756942749023438,-0.45010992884635925,381845662917053
426,-2.2218191623687744,9.3756942749023438,-0.47884035110473633,381845682997228
427,-2.1547815799713135,9.3948478698730469,-0.46926352381706238,381845703046885
428,-2.1930887699127197,9.4618854522705078,-0.38307225704193115,381845723127061
429,-2.1930887699127197,9.4523086547851562,-0.49799394607543945,381845743207235
430,-2.1452047824859619,9.3852710723876953,-0.47884035110473633,381845763287411
431,-2.2218191623687744,9.3661174774169922,-0.41180267930030823,381845783367585
432,-2.1452047824859619,9.4714622497558594,-0.47884035110473633,381845803447759
433,-2.1739351749420166,9.4331550598144531,-0.45968672633171082,381845823527935
434,-2.1930887699127197,9.3756942749023438,-0.45010992884635925,381845843608109
435,-2.1356279850006104,9.4618854522705078,-0.40222588181495667,381845863688284
436,-2.164358377456665,9.3852710723876953,-0.51714754104614258,381845883737942
437,-2.2218191623687744,9.4044246673583984,-0.4405331015586853,381845903818117
438,-2.2409727573394775,9.3948478698730469,-0.42137950658798218,381845923898291
439,-2.1739351749420166,9.3469638824462891,-0.46926352381706238,381845943978467
440,-2.1547815799713135,9.3756942749023438,-0.45968672633171082,381845964058641
441,-2.2697031497955322,9.3948478698730469,-0.4405331015586853,381845984138816
442,-2.2218191623687744,9.4044246673583984,-0.40222588181495667,381846004218991
443,-2.2026655673980713,9.3852710723876953,-0.45010992884635925,381846024299165
444,-2.2218191623687744,9.3661174774169922,-0.47884035110473633,381846044379340
445,-2.1835119724273682,9.3852710723876953,-0.43095630407333374,381846064428998
446,-2.1739351749420166,9.3756942749023438,-0.47884035110473633,381846084509173
447,-2.1930887699127197,9.3948478698730469,-0.42137950658798218,381846104589347
448,-2.2122423648834229,9.3469638824462891,-0.32561144232749939,381846124669523
449,-2.1930887699127197,9.4523086547851562,-0.46926352381706238,381846144749697
450,-2.164358377456665,9.4427318572998047,-0.41180267930030823,381846164829872
451,-2.1547815799713135,9.4044246673583984,-0.47884035110473633,381846184910047
452,-2.1547815799713135,9.4044246673583984,-0.46926352381706238,381846204990221
453,-2.164358377456665,9.4044246673583984,-0.40222588181495667,381846225070396
454,-2.231395959854126,9.3661174774169922,-0.3926490843296051,381846245120054
455,-2.1547815799713135,9.3852710723876953,-0.47884035110473633,381846265200229
456,-2.2026655673980713,9.3469638824462891,-0.45968672633171082,381846285280404
457,-2.2026655673980713,9.4235782623291016,-0.34476503729820251,381846305360579
458,-2.231395959854126,9.3948478698730469,-0.40222588181495667,381846325440753
459,-2.1930887699127197,9.2990789413452148,-0.4405331015586853,381846345520928
460,-2.2026655673980713,9.4331550598144531,-0.40222588181495667,381846365601103
461,-2.2218191623687744,9.4331550598144531,-0.41180267930030823,381846385681278
462,-2.1930887699127197,9.3948478698730469,-0.4405331015586853,381846405730935
463,-2.1930887699127197,9.41400146484375,-0.41180267930030823,381846425811110
464,-2.1739351749420166,9.41400146484375,-0.40222588181495667,381846445891285
465,-2.1452047824859619,9.3661174774169922,-0.45010992884635925,381846466001977
466,-2.0685901641845703,9.4427318572998047,-0.45968672633171082,381846486051635
467,-2.1452047824859619,9.3852710723876953,-0.41180267930030823,381846506131809
468,-2.1739351749420166,9.3852710723876953,-0.4405331015586853,381846526211984
469,-2.1260511875152588,9.41400146484375,-0.3926490843296051,381846546292159
470,-2.1547815799713135,9.3756942749023438,-0.41180267930030823,381846566372334
471,-2.2218191623687744,9.41400146484375,-0.4405331015586853,381846586452509
472,-2.1930887699127197,9.3948478698730469,-0.38307225704193115,381846606532683
473,-2.164358377456665,9.4618854522705078,-0.45010992884635925,381846626612858
474,-2.1164743900299072,9.4235782623291016,-0.43095630407333374,381846646693033
475,-2.2026655673980713,9.3948478698730469,-0.37349545955657959,381846666773208
476,-2.1739351749420166,9.3756942749023438,-0.47884035110473633,381846686853382
477,-2.1739351749420166,9.3086557388305664,-0.42137950658798218,381846706933557
478,-2.2505495548248291,9.3948478698730469,-0.3926490843296051,381846726983215
479,-2.1930887699127197,9.4618854522705078,-0.46926352381706238,381846747063390
480,-2.1930887699127197,9.41400146484375,-0.43095630407333374,381846767143565
481,-2.2026655673980713,9.41400146484375,-0.45968672633171082,381846787223740
482,-2.1547815799713135,9.4235782623291016,-0.45968672633171082,381846807303914
483,-2.1452047824859619,9.4331550598144531,-0.43095630407333374,381846827384089
484,-2.1164743900299072,9.3565406799316406,-0.42137950658798218,381846847464264
485,-2.1835119724273682,9.3852710723876953,-0.45968672633171082,381846867544438
486,-2.2409727573394775,9.4523086547851562,-0.42137950658798218,381846887624614
487,-2.1260511875152588,9.3565406799316406,-0.46926352381706238,381846907704788
488,-2.2697031497955322,9.4331550598144531,-0.45010992884635925,381846927784963
489,-2.2218191623687744,9.3565406799316406,-0.45010992884635925,381846947865138
490,-2.2218191623687744,9.3661174774169922,-0.3926490843296051,381846967945312
491,-2.1835119724273682,9.3373870849609375,-0.37349545955657959,381846988025488
492,-2.2122423648834229,9.3948478698730469,-0.45010992884635925,381847008105662
493,-2.1835119724273682,9.41400146484375,-0.40222588181495667,381847028155320
494,-2.0781669616699219,9.3852710723876953,-0.3926490843296051,381847048235495
495,-2.0877439975738525,9.3469638824462891,-0.38307225704193115,381847068315670
496,-2.1547815799713135,9.4044246673583984,-0.41180267930030823,381847088395844
497,-2.164358377456665,9.4427318572998047,-0.36391866207122803,381847108476019
498,-2.164358377456665,9.4810390472412109,-0.40222588181495667,381847128556194
499,-2.164358377456665,9.3948478698730469,-0.40222588181495667,381847148636368
500,-2.1739351749420166,9.3852710723876953,-0.40222588181495667,381847168716544
501,-2.164358377456665,9.4331550598144531,-0.34476503729820251,381847188796718
502,-2.1739351749420166,9.4331550598144531,-0.41180267930030823,381847208876893
503,-2.1835119724273682,9.4523086547851562,-0.32561144232749939,381847228957068
504,-2.1356279850006104,9.3852710723876953,-0.35434186458587646,381847249006726
505,-2.1452047824859619,9.3852710723876953,-0.34476503729820251,381847269086900
506,-2.1930887699127197,9.4331550598144531,-0.4405331015586853,381847289167076
507,-2.1739351749420166,9.3469638824462891,-0.47884035110473633,381847309247250
508,-2.2026655673980713,9.3661174774169922,-0.4405331015586853,381847329327424
509,-2.1930887699127197,9.4331550598144531,-0.42137950658798218,381847349407600
510,-2.1452047824859619,9.41400146484375,-0.37349545955657959,381847369487774
511,-2.1356279850006104,9.3756942749023438,-0.40222588181495667,381847389567950
512,-2.1835119724273682,9.4331550598144531,-0.42137950658798218,381847409648124
513,-2.1356279850006104,9.3661174774169922,-0.41180267930030823,381847429728298
514,-2.1739351749420166,9.3661174774169922,-0.48841714859008789,381847449808474
515,-2.164358377456665,9.3661174774169922,-0.35434186458587646,381847469888648
516,-2.1164743900299072,9.3948478698730469,-0.36391866207122803,381847489968823
517,-2.1739351749420166,9.4523086547851562,-0.45968672633171082,381847510048998
518,-2.2026655673980713,9.3852710723876953,-0.36391866207122803,381847530129172
519,-2.164358377456665,9.3661174774169922,-0.45968672633171082,381847550209348
520,-2.1452047824859619,9.4044246673583984,-0.45010992884635925,381847570289522
521,-2.2026655673980713,9.41400146484375,-0.42137950658798218,381847590369697
522,-2.2218191623687744,9.3948478698730469,-0.37349545955657959,381847610419354
523,-2.2122423648834229,9.3756942749023438,-0.3926490843296051,381847630530046
524,-2.2218191623687744,9.3948478698730469,-0.33518823981285095,381847650610222
525,-2.2505495548248291,9.3852710723876953,-0.45010992884635925,381847670690396
526,-2.1835119724273682,9.3278102874755859,-0.47884035110473633,381847690770571
527,-2.2026655673980713,9.3756942749023438,-0.43095630407333374,381847710850746
528,-2.1739351749420166,9.3756942749023438,-0.4405331015586853,381847730930920
529,-2.164358377456665,9.4427318572998047,-0.47884035110473633,381847751011095
530,-2.1068975925445557,9.4235782623291016,-0.43095630407333374,381847771091270
531,-2.1930887699127197,9.3661174774169922,-0.49799394607543945,381847791140928
532,-2.1164743900299072,9.4427318572998047,-0.46926352381706238,381847811221102
533,-2.0973207950592041,9.3756942749023438,-0.49799394607543945,381847831301278
534,-2.1068975925445557,9.4331550598144531,-0.34476503729820251,381847851381452
535,-2.1356279850006104,9.4523086547851562,-0.37349545955657959,381847871461627
536,-2.0685901641845703,9.4714622497558594,-0.37349545955657959,381847891541802
537,-2.0781669616699219,9.3469638824462891,-0.37349545955657959,381847911621977
538,-2.1260511875152588,9.4523086547851562,-0.35434186458587646,381847931702151
539,-2.1739351749420166,9.41400146484375,-0.36391866207122803,381847951782326
540,-2.1356279850006104,9.3565406799316406,-0.38307225704193115,381847971862501
541,-2.2409727573394775,9.3661174774169922,-0.34476503729820251,381847991942676
542,-2.1930887699127197,9.3756942749023438,-0.40222588181495667,381848012022851
543,-2.1547815799713135,9.41400146484375,-0.37349545955657959,381848032072508
544,-2.1164743900299072,9.3948478698730469,-0.37349545955657959,381848052152683
545,-2.1930887699127197,9.4331550598144531,-0.33518823981285095,381848072232858
546,-2.1547815799713135,9.41400146484375,-0.2777273952960968,381848092313033
547,-2.2026655673980713,9.3756942749023438,-0.37349545955657959,381848112393208
548,-2.1164743900299072,9.4427318572998047,-0.33518823981285095,381848132473382
549,-2.1164743900299072,9.4044246673583984,-0.30645781755447388,381848152553557
550,-2.164358377456665,9.4427318572998047,-0.34476503729820251,381848172633732
551,-2.164358377456665,9.4331550598144531,-0.32561144232749939,381848192713907
552,-2.1164743900299072,9.4235782623291016,-0.30645781755447388,381848212794081
553,-2.0781669616699219,9.4235782623291016,-0.31603461503982544,381848232874256
554,-2.0973207950592041,9.4618854522705078,-0.35434186458587646,381848252954431
555,-2.1164743900299072,9.41400146484375,-0.37349545955657959,381848273004089
556,-2.1164743900299072,9.4331550598144531,-0.28730419278144836,381848293084264
557,-2.0590133666992188,9.4235782623291016,-0.41180267930030823,381848313164438
558,-2.1164743900299072,9.3756942749023438,-0.29688102006912231,381848333244613
559,-2.1260511875152588,9.4044246673583984,-0.28730419278144836,381848353324788
560,-2.0685901641845703,9.3661174774169922,-0.31603461503982544,381848373404963
561,-2.1164743900299072,9.4235782623291016,-0.28730419278144836,381848393485137
562,-2.1164743900299072,9.4427318572998047,-0.30645781755447388,381848413565313
563,-2.0877439975738525,9.4044246673583984,-0.26815059781074524,381848433645487
564,-2.0781669616699219,9.3948478698730469,-0.28730419278144836,381848453725662
565,-2.0877439975738525,9.4235782623291016,-0.2777273952960968,381848473805837
566,-2.0973207950592041,9.4235782623291016,-0.28730419278144836,381848493886011
567,-2.1068975925445557,9.4235782623291016,-0.35434186458587646,381848513966187
568,-2.1164743900299072,9.3948478698730469,-0.26815059781074524,381848534046361
569,-2.0781669616699219,9.4427318572998047,-0.30645781755447388,381848554126535
570,-2.1739351749420166,9.4044246673583984,-0.36391866207122803,381848574206711
571,-2.1068975925445557,9.4235782623291016,-0.34476503729820251,381848594286885
572,-2.0685901641845703,9.4714622497558594,-0.28730419278144836,381848614336543
573,-2.1068975925445557,9.4618854522705078,-0.29688102006912231,381848634416718
574,-2.0685901641845703,9.4331550598144531,-0.28730419278144836,381848654496893
575,-2.0781669616699219,9.4523086547851562,-0.30645781755447388,381848674577067
576,-2.0973207950592041,9.4810390472412109,-0.33518823981285095,381848694657243
577,-2.1068975925445557,9.4523086547851562,-0.30645781755447388,381848714737417
578,-2.0302829742431641,9.3469638824462891,-0.30645781755447388,381848734817592
579,-2.1356279850006104,9.3948478698730469,-0.37349545955657959,381848754897767
580,-2.0877439975738525,9.4331550598144531,-0.29688102006912231,381848774977941
581,-2.0877439975738525,9.41400146484375,-0.29688102006912231,381848795058117
582,-2.0781669616699219,9.4523086547851562,-0.31603461503982544,381848815138291
583,-2.0781669616699219,9.4044246673583984,-0.36391866207122803,381848835187949
584,-2.164358377456665,9.4618854522705078,-0.30645781755447388,381848855268123
585,-2.1164743900299072,9.3852710723876953,-0.33518823981285095,381848875348299
586,-2.1356279850006104,9.41400146484375,-0.36391866207122803,381848895428473
587,-2.1356279850006104,9.4044246673583984,-0.36391866207122803,381848915508649
588,-2.0973207950592041,9.4331550598144531,-0.25857377052307129,381848935588823
589,-2.1356279850006104,9.4714622497558594,-0.2777273952960968,381848955668997
590,-2.1547815799713135,9.4331550598144531,-0.29688102006912231,381848975749173
591,-2.1356279850006104,9.41400146484375,-0.25857377052307129,381848995829347
592,-2.1547815799713135,9.4044246673583984,-0.34476503729820251,381849015909522
593,-2.1547815799713135,9.4618854522705078,-0.25857377052307129,381849035959179
594,-2.0685901641845703,9.4714622497558594,-0.33518823981285095,381849056039355
595,-2.1356279850006104,9.3852710723876953,-0.35434186458587646,381849076119529
596,-2.1260511875152588,9.4427318572998047,-0.31603461503982544,381849096199705
597,-2.0781669616699219,9.4714622497558594,-0.2777273952960968,381849116279879
598,-2.0781669616699219,9.3852710723876953,-0.26815059781074524,381849136360053
599,-2.1452047824859619,9.4235782623291016,-0.34476503729820251,381849156440229
600,-2.1260511875152588,9.4331550598144531,-0.40222588181495667,381849176520403
601,-2.0877439975738525,9.4427318572998047,-0.33518823981285095,381849196600578
602,-2.1547815799713135,9.4331550598144531,-0.25857377052307129,381849216680753
603,-2.1547815799713135,9.3756942749023438,-0.28730419278144836,381849236760927
604,-2.0685901641845703,9.4618854522705078,-0.29688102006912231,381849256841103
605,-2.1164743900299072,9.4331550598144531,-0.29688102006912231,381849276890761
606,-2.1068975925445557,9.4235782623291016,-0.32561144232749939,381849296970935
607,-2.0685901641845703,9.4044246673583984,-0.32561144232749939,381849317051109
608,-2.0781669616699219,9.4044246673583984,-0.29688102006912231,381849337131285
609,-2.0590133666992188,9.4331550598144531,-0.30645781755447388,381849357211459
610,-2.0973207950592041,9.4044246673583984,-0.33518823981285095,381849377291635
611,-2.0973207950592041,9.4714622497558594,-0.38307225704193115,381849397371809
612,-2.0111293792724609,9.4427318572998047,-0.31603461503982544,381849417451984
613,-2.1164743900299072,9.4810390472412109,-0.31603461503982544,381849437532159
614,-2.1260511875152588,9.3469638824462891,-0.29688102006912231,381849457581817
615,-2.0877439975738525,9.4044246673583984,-0.22026655077934265,381849477661991
616,-2.1356279850006104,9.4714622497558594,-0.25857377052307129,381849497742166
617,-2.1164743900299072,9.4523086547851562,-0.2777273952960968,381849517822341
618,-2.164358377456665,9.4331550598144531,-0.32561144232749939,381849537902515
619,-2.1068975925445557,9.3852710723876953,-0.31603461503982544,381849557982691
620,-2.1452047824859619,9.4235782623291016,-0.28730419278144836,381849578062865
621,-2.1547815799713135,9.3756942749023438,-0.2777273952960968,381849598143040
622,-2.1356279850006104,9.4618854522705078,-0.26815059781074524,381849618223215
623,-2.1068975925445557,9.4427318572998047,-0.33518823981285095,381849638303389
624,-2.1739351749420166,9.4427318572998047,-0.30645781755447388,381849658383564
625,-2.0973207950592041,9.4427318572998047,-0.24899697303771973,381849678463739
626,-2.1164743900299072,9.41400146484375,-0.21068975329399109,381849698543914
627,-2.1547815799713135,9.4044246673583984,-0.26815059781074524,381849718624089
628,-2.0685901641845703,9.3948478698730469,-0.29688102006912231,381849738673747
629,-2.0685901641845703,9.4427318572998047,-0.33518823981285095,381849758753921
630,-2.0207061767578125,9.4618854522705078,-0.24899697303771973,381849778834096
631,-2.1260511875152588,9.3756942749023438,-0.23942017555236816,381849798914271
632,-2.1356279850006104,9.4427318572998047,-0.29688102006912231,381849818994445
633,-2.1164743900299072,9.41400146484375,-0.33518823981285095,381849839074620
634,-2.0877439975738525,9.4523086547851562,-0.37349545955657959,381849859154795
635,-2.1164743900299072,9.41400146484375,-0.33518823981285095,381849879234970
636,-2.1068975925445557,9.3852710723876953,-0.29688102006912231,381849899315145
637,-2.1164743900299072,9.4618854522705078,-0.31603461503982544,381849919395320
638,-2.0781669616699219,9.4810390472412109,-0.29688102006912231,381849939475494
639,-2.1164743900299072,9.4044246673583984,-0.31603461503982544,381849959555669
640,-2.1356279850006104,9.41400146484375,-0.26815059781074524,381849979635844
641,-2.1164743900299072,9.41400146484375,-0.2777273952960968,381849999716019
642,-2.0494365692138672,9.4235782623291016,-0.25857377052307129,381850019796194
643,-2.0781669616699219,9.4427318572998047,-0.34476503729820251,381850039876368
644,-2.0973207950592041,9.4235782623291016,-0.25857377052307129,381850059926026
645,-2.0877439975738525,9.3852710723876953,-0.24899697303771973,381850080006201
646,-2.1260511875152588,9.4427318572998047,-0.38307225704193115,381850100086376
647,-2.0781669616699219,9.3661174774169922,-0.29688102006912231,381850120166550
648,-2.1164743900299072,9.4427318572998047,-0.2777273952960968,381850140246725
649,-2.1068975925445557,9.4618854522705078,-0.29688102006912231,381850160326900
650,-2.0877439975738525,9.3852710723876953,-0.28730419278144836,381850180407075
651,-2.1164743900299072,9.3661174774169922,-0.32561144232749939,381850200487250
652,-2.1068975925445557,9.4235782623291016,-0.31603461503982544,381850220567424
653,-2.0973207950592041,9.41400146484375,-0.37349545955657959,381850240617082
654,-2.1260511875152588,9.4618854522705078,-0.2777273952960968,381850260666740
655,-2.0877439975738525,9.4618854522705078,-0.25857377052307129,381850280746915
656,-2.0973207950592041,9.3469638824462891,-0.31603461503982544,381850300827090
657,-2.0781669616699219,9.4523086547851562,-0.33518823981285095,381850320907264
658,-2.0877439975738525,9.4523086547851562,-0.33518823981285095,381850340987439
659,-2.1068975925445557,9.3756942749023438,-0.30645781755447388,381850361067614
660,-2.0877439975738525,9.4044246673583984,-0.38307225704193115,381850381147789
661,-2.0685901641845703,9.3948478698730469,-0.29688102006912231,381850401227964
662,-2.1164743900299072,9.4618854522705078,-0.33518823981285095,381850421277621
663,-2.0877439975738525,9.4331550598144531,-0.32561144232749939,381850441357796
664,-2.1260511875152588,9.3756942749023438,-0.33518823981285095,381850461437971
665,-2.2026655673980713,9.4044246673583984,-0.33518823981285095,381850481518146
666,-2.0877439975738525,9.4618854522705078,-0.32561144232749939,381850501598320
667,-2.1547815799713135,9.4331550598144531,-0.31603461503982544,381850521678495
668,-2.0494365692138672,9.3756942749023438,-0.33518823981285095,381850541758670
669,-2.0494365692138672,9.4331550598144531,-0.28730419278144836,381850561838845
670,-2.1164743900299072,9.4235782623291016,-0.33518823981285095,381850581919020
671,-2.0590133666992188,9.4235782623291016,-0.29688102006912231,381850601999194
672,-2.0877439975738525,9.4044246673583984,-0.2777273952960968,381850622048852
673,-2.1164743900299072,9.4714622497558594,-0.25857377052307129,381850642129027
674,-2.1356279850006104,9.4714622497558594,-0.32561144232749939,381850662209202
675,-2.0302829742431641,9.41400146484375,-0.33518823981285095,381850682289376
676,-2.0398597717285156,9.4044246673583984,-0.33518823981285095,381850702369551
677,-2.1068975925445557,9.3852710723876953,-0.2777273952960968,381850722449726
678,-2.0877439975738525,9.4235782623291016,-0.32561144232749939,381850742529901
679,-2.0781669616699219,9.3852710723876953,-0.34476503729820251,381850762610076
680,-2.1068975925445557,9.3565406799316406,-0.28730419278144836,381850782690250
681,-2.0877439975738525,9.4618854522705078,-0.32561144232749939,381850802770426
682,-2.1356279850006104,9.4235782623291016,-0.31603461503982544,381850822820083
683,-2.0494365692138672,9.4235782623291016,-0.29688102006912231,381850842900258
684,-2.0781669616699219,9.4523086547851562,-0.30645781755447388,381850862980432
685,-2.1260511875152588,9.3852710723876953,-0.33518823981285095,381850883060608
686,-2.0877439975738525,9.4714622497558594,-0.29688102006912231,381850903140782
687,-2.1452047824859619,9.4618854522705078,-0.29688102006912231,381850923220957
688,-2.1068975925445557,9.4235782623291016,-0.31603461503982544,381850943301132
689,-2.0398597717285156,9.4906158447265625,-0.37349545955657959,381850963381306
690,-2.1356279850006104,9.4427318572998047,-0.31603461503982544,381850983461482
691,-2.1356279850006104,9.4618854522705078,-0.34476503729820251,381851003511139
692,-2.1260511875152588,9.4235782623291016,-0.2777273952960968,381851023591314
693,-2.0590133666992188,9.3852710723876953,-0.30645781755447388,381851043671489
694,-2.0207061767578125,9.3948478698730469,-0.26815059781074524,381851063751664
695,-2.0973207950592041,9.4523086547851562,-0.22984336316585541,381851083831838
696,-2.0781669616699219,9.4714622497558594,-0.33518823981285095,381851103912013
697,-2.1068975925445557,9.4331550598144531,-0.36391866207122803,381851123992188
698,-2.1068975925445557,9.5097694396972656,-0.32561144232749939,381851144072362
699,-2.0973207950592041,9.4810390472412109,-0.32561144232749939,381851164152538
700,-2.0781669616699219,9.3661174774169922,-0.31603461503982544,381851184232712
701,-2.0015525817871094,9.4427318572998047,-0.24899697303771973,381851204282370
702,-2.1164743900299072,9.4427318572998047,-0.36391866207122803,381851224362545
703,-2.1356279850006104,9.3661174774169922,-0.32561144232749939,381851244442720
704,-2.1452047824859619,9.4523086547851562,-0.26815059781074524,381851264522894
705,-2.1835119724273682,9.4235782623291016,-0.26815059781074524,381851284603070
706,-2.0877439975738525,9.4235782623291016,-0.35434186458587646,381851304683244
707,-2.0973207950592041,9.4523086547851562,-0.32561144232749939,381851324763418
708,-2.1260511875152588,9.4044246673583984,-0.34476503729820251,381851344843594
709,-2.1452047824859619,9.3948478698730469,-0.37349545955657959,381851364923768
710,-2.0973207950592041,9.41400146484375,-0.25857377052307129,381851384973426
711,-2.1547815799713135,9.4044246673583984,-0.2777273952960968,381851405053601
712,-2.1547815799713135,9.4714622497558594,-0.26815059781074524,381851425133776
713,-2.0494365692138672,9.4618854522705078,-0.26815059781074524,381851445213950
714,-2.1260511875152588,9.4523086547851562,-0.30645781755447388,381851465294126
715,-2.0590133666992188,9.3565406799316406,-0.25857377052307129,381851485374300
716,-2.1260511875152588,9.4044246673583984,-0.34476503729820251,381851505454474
717,-2.1547815799713135,9.4427318572998047,-0.30645781755447388,381851525534650
718,-2.0973207950592041,9.4331550598144531,-0.28730419278144836,381851545614824
719,-2.0877439975738525,9.3948478698730469,-0.29688102006912231,381851565664482
720,-2.0685901641845703,9.3948478698730469,-0.33518823981285095,381851585744657
721,-2.0781669616699219,9.4523086547851562,-0.31603461503982544,381851605824832
722,-2.0685901641845703,9.3948478698730469,-0.2777273952960968,381851625905006
723,-2.0877439975738525,9.4235782623291016,-0.29688102006912231,381851645985182
724,-2.1260511875152588,9.4427318572998047,-0.2777273952960968,381851666065356
725,-2.1547815799713135,9.3565406799316406,-0.23942017555236816,381851686145531
726,-2.1164743900299072,9.4235782623291016,-0.30645781755447388,381851706225706
727,-2.1068975925445557,9.4618854522705078,-0.31603461503982544,381851726305880
728,-2.1452047824859619,9.4618854522705078,-0.35434186458587646,381851746386056
729,-2.1452047824859619,9.3373870849609375,-0.25857377052307129,381851766466230
730,-2.1164743900299072,9.3852710723876953,-0.24899697303771973,381851786546405
731,-2.1260511875152588,9.4235782623291016,-0.29688102006912231,381851806626580
732,-2.1260511875152588,9.4235782623291016,-0.34476503729820251,381851826706754
733,-2.1260511875152588,9.3948478698730469,-0.32561144232749939,381851846786930
734,-2.0685901641845703,9.4427318572998047,-0.30645781755447388,381851866836588
735,-2.1739351749420166,9.4427318572998047,-0.31603461503982544,381851886916762
736,-2.1547815799713135,9.3852710723876953,-0.30645781755447388,381851906996936
737,-2.1547815799713135,9.4427318572998047,-0.32561144232749939,381851927077112
738,-2.1068975925445557,9.4331550598144531,-0.29688102006912231,381851947157286
739,-2.0973207950592041,9.4331550598144531,-0.32561144232749939,381851967237461
740,-2.1164743900299072,9.4523086547851562,-0.31603461503982544,381851987317636
741,-2.1835119724273682,9.4427318572998047,-0.28730419278144836,381852007397810
742,-2.1260511875152588,9.4044246673583984,-0.33518823981285095,381852027477986
743,-2.0781669616699219,9.4810390472412109,-0.34476503729820251,381852047558160
744,-2.0781669616699219,9.41400146484375,-0.29688102006912231,381852067638335
745,-2.1164743900299072,9.4523086547851562,-0.32561144232749939,381852087718510
746,-2.0877439975738525,9.4044246673583984,-0.32561144232749939,381852107768168
747,-2.0302829742431641,9.41400146484375,-0.28730419278144836,381852127848342
748,-2.1356279850006104,9.4235782623291016,-0.37349545955657959,381852147928517
749,-2.1068975925445557,9.3948478698730469,-0.26815059781074524,381852168008692
750,-2.0877439975738525,9.3852710723876953,-0.31603461503982544,381852188088866
751,-2.1260511875152588,9.4523086547851562,-0.28730419278144836,381852208169042
752,-2.0973207950592041,9.4523086547851562,-0.35434186458587646,381852228249216
753,-2.1835119724273682,9.41400146484375,-0.33518823981285095,381852248329391
754,-2.0302829742431641,9.4331550598144531,-0.24899697303771973,381852268409566
755,-2.0781669616699219,9.4331550598144531,-0.26815059781074524,381852288489741
756,-2.1260511875152588,9.4427318572998047,-0.23942017555236816,381852308569916
757,-2.0877439975738525,9.3852710723876953,-0.31603461503982544,381852328650090
758,-2.0207061767578125,9.4331550598144531,-0.24899697303771973,381852348730265
759,-2.0207061767578125,9.4235782623291016,-0.26815059781074524,381852368810440
760,-2.0973207950592041,9.41400146484375,-0.30645781755447388,381852388890615
761,-2.1260511875152588,9.4235782623291016,-0.30645781755447388,381852408970789
762,-2.1068975925445557,9.3756942749023438,-0.29688102006912231,381852429050964
763,-2.1068975925445557,9.3852710723876953,-0.28730419278144836,381852449131139
764,-2.1547815799713135,9.4427318572998047,-0.30645781755447388,381852469211314
765,-2.0781669616699219,9.4331550598144531,-0.28730419278144836,381852489291489
766,-2.0973207950592041,9.4427318572998047,-0.31603461503982544,381852509371663
767,-2.1739351749420166,9.4427318572998047,-0.31603461503982544,381852529451838
768,-2.1260511875152588,9.4235782623291016,-0.29688102006912231,381852549532013
769,-2.1356279850006104,9.41400146484375,-0.23942017555236816,381852569612187
770,-2.1260511875152588,9.3852710723876953,-0.28730419278144836,381852589692363
771,-2.1260511875152588,9.4427318572998047,-0.29688102006912231,381852609772537
772,-2.1739351749420166,9.4523086547851562,-0.2777273952960968,381852629822195
773,-2.1547815799713135,9.4044246673583984,-0.24899697303771973,381852649902370
774,-2.1547815799713135,9.4810390472412109,-0.22984336316585541,381852669982545
775,-2.1356279850006104,9.4618854522705078,-0.31603461503982544,381852690062719
776,-2.164358377456665,9.3278102874755859,-0.22984336316585541,381852710142894
777,-2.2409727573394775,9.3565406799316406,-0.25857377052307129,381852730223069
778,-2.2505495548248291,9.3948478698730469,-0.22026655077934265,381852750333761
779,-2.2505495548248291,9.3756942749023438,-0.18195933103561401,381852770413935
780,-2.2026655673980713,9.4331550598144531,-0.26815059781074524,381852790494111
781,-2.2122423648834229,9.3661174774169922,-0.34476503729820251,381852810574285
782,-2.2218191623687744,9.4044246673583984,-0.33518823981285095,381852830654459
783,-2.0973207950592041,9.3852710723876953,-0.28730419278144836,381852850734635
784,-2.0494365692138672,9.4618854522705078,-0.38307225704193115,381852870814809
785,-2.0781669616699219,9.4044246673583984,-0.28730419278144836,381852890894985
786,-2.0111293792724609,9.3756942749023438,-0.4405331015586853,381852910975159
787,-2.0015525817871094,9.3756942749023438,-0.47884035110473633,381852931055334
788,-1.9823989868164062,9.41400146484375,-0.3926490843296051,381852951135509
789,-1.9919757843017578,9.4523086547851562,-0.42137950658798218,381852971215683
790,-1.8674772977828979,9.4044246673583984,-0.38307225704193115,381852991295858
791,-1.800439715385437,9.5097694396972656,-0.35434186458587646,381853011376033
792,-1.8195933103561401,9.5384998321533203,-0.34476503729820251,381853031486725
793,-1.944091796875,9.4427318572998047,-0.35434186458587646,381853051566900
794,-1.9632453918457031,9.5097694396972656,-0.26815059781074524,381853071647074
795,-2.0590133666992188,9.4523086547851562,-0.21068975329399109,381853091727249
796,-2.1356279850006104,9.4235782623291016,-0.26815059781074524,381853111807424
797,-2.1739351749420166,9.4044246673583984,-0.14365209639072418,381853131887599
798,-2.1930887699127197,9.41400146484375,-0.19153612852096558,381853151967774
799,-2.1164743900299072,9.4523086547851562,-0.21068975329399109,381853172047948
800,-2.1260511875152588,9.5384998321533203,-0.10534487664699554,381853192128123
801,-2.0302829742431641,9.4810390472412109,-0.1149216815829277,381853212208298
802,-2.0494365692138672,9.4523086547851562,-0.12449848651885986,381853232288472
803,-2.0111293792724609,9.4906158447265625,-0.076614454388618469,381853252368648
804,-1.9632453918457031,9.4523086547851562,-0.095768064260482788,381853272448822
805,-1.522712230682373,8.8681230545043945,1.580173134803772,381853292528997
806,-1.9536685943603516,9.5001926422119141,-0.028730420395731926,381853312639688
807,-2.1547815799713135,9.5959606170654297,-0.94810384511947632,381853332719864
808,-1.8866308927536011,9.3948478698730469,0.14365209639072418,381853352800038
809,-1.9345149993896484,9.5289230346679688,-0.095768064260482788,381853372880214
810,-2.2122423648834229,9.4331550598144531,-0.13407529890537262,381853392960388
811,-2.3080103397369385,9.4714622497558594,-0.0095768067985773087,381853413040562
812,-2.365471363067627,9.3661174774169922,-0.36391866207122803,381853433120738
813,-2.4899697303771973,9.2607717514038086,-0.24899697303771973,381853453200912
814,-2.1547815799713135,9.4331550598144531,-0.30645781755447388,381853473281087
815,-2.4420857429504395,9.4044246673583984,-0.36391866207122803,381853493361262
816,-2.3271639347076416,9.2799253463745117,-0.34476503729820251,381853513410920
817,-2.3080103397369385,8.791508674621582,-0.62249243259429932,381853533491094
818,-2.1835119724273682,9.3852710723876953,-0.32561144232749939,381853553571270
819,-2.2601263523101807,9.720458984375,-0.26815059781074524,381853573651444
820,-1.9153614044189453,9.5480766296386719,-0.52672439813613892,381853593731619
821,-2.0685901641845703,9.5001926422119141,-0.48841714859008789,381853613811794
822,-2.2409727573394775,9.3661174774169922,-0.019153613597154617,381853633891968
823,-2.2026655673980713,9.3086557388305664,-0.30645781755447388,381853653972143
824,-2.0685901641845703,9.4714622497558594,-0.70868372917175293,381853674052318
825,-1.8483237028121948,10.141838073730469,-0.63206923007965088,381853694132493
826,-1.8100165128707886,10.074800491333008,-0.29688102006912231,381853714212668
827,-2.0877439975738525,9.5097694396972656,-0.50757074356079102,381853734292842
828,-1.7429788112640381,9.5863838195800781,-0.3926490843296051,381853754373017
829,-1.7334020137786865,9.7396125793457031,-0.095768064260482788,381853774453192
830,-2.6431987285614014,9.5863838195800781,0.028730420395731926,381853794533367
831,-2.4899697303771973,10.20887565612793,-0.2777273952960968,381853814613542
832,-2.6910827159881592,10.247182846069336,-0.17238251864910126,381853834663199
833,-2.4612393379211426,10.295066833496094,-0.31603461503982544,381853854743374
834,-2.6240451335906982,10.304644584655762,0.038307227194309235,381853874823549
835,-2.7581202983856201,10.524910926818848,-0.7661445140838623,381853894903724
836,-2.4037785530090332,10.946290016174316,0.0095768067985773087,381853914983898
837,-2.4420857429504395,10.534487724304199,0.37349545955657959,381853935064073
838,-2.3750481605529785,10.170568466186523,0.46926352381706238,381853955144248
839,-2.2984335422515869,10.371682167053223,-0.37349545955657959,381853975224423
840,-2.5091233253479004,10.716446876525879,-0.5554547905921936,381853995304598
841,-2.6719291210174561,11.645397186279297,-0.22026655077934265,381854015384772
842,-2.873042106628418,11.712434768676758,-0.80445176362991333,381854035464947
843,-2.9017724990844727,11.654973983764648,-0.69910687208175659,381854055545122
844,-2.6815059185028076,11.35809326171875,-0.019153613597154617,381854075625297
845,-2.6240451335906982,11.463438034057617,1.158793568611145,381854095705471
846,-2.8155810832977295,11.013327598571777,0.057460840791463852,381854115785646
847,-2.7102363109588623,10.591948509216309,-1.6472107172012329,381854135865821
848,-3.1794998645782471,10.888829231262207,-1.2449848651885986,381854155915479
849,-3.2944214344024658,10.362105369567871,-2.0111293792724609,381854175995654
850,-2.9113492965698242,10.381258964538574,-0.057460840791463852,381854196075829
851,-2.6048915386199951,10.237606048583984,1.8100165128707886,381854216156003
852,-4.0126819610595703,8.8872766494750977,-0.97683429718017578,381854236236178
853,-3.4572272300720215,9.7013053894042969,0.42137950658798218,381854256316353
854,-2.8921957015991211,8.9926214218139648,0.97683429718017578,381854276396527
855,-2.1547815799713135,9.6246910095214844,2.959233283996582,381854296476703
856,-4.041412353515625,8.1402854919433594,1.2066776752471924,381854316556877
857,-3.9743747711181641,8.08282470703125,1.3790601491928101,381854336637052
858,-3.6583402156829834,8.1690158843994141,4.4436383247375488,381854356717227
859,-4.5202527046203613,7.5273699760437012,3.8402996063232422,381854376766885
860,-3.9360675811767578,7.8338279724121094,2.7198131084442139,381854396847059
861,-3.533841609954834,7.8050975799560547,2.3080103397369385,381854416927234
862,-3.667917013168335,7.422025203704834,2.518700122833252,381854437007409
863,-2.9688100814819336,7.8050975799560547,3.1028854846954346,381854457087584
864,-3.1890766620635986,7.4699091911315918,2.0111293792724609,381854477167759
865,-3.1220390796661377,7.1634516716003418,1.5418659448623657,381854497247933
866,-3.4380736351013184,6.8282632827758789,0.88106620311737061,381854517328108
867,-2.6815059185028076,6.6750345230102539,2.3558945655822754,381854537408283
868,0.84275901317596436,4.5394062995910645,2.9209260940551758,381854557488457
869,-3.2752678394317627,5.123591423034668,2.2792799472808838,381854577568633
870,-5.2193598747253418,5.1427450180053711,3.0071172714233398,381854597618291
871,-5.4013190269470215,4.9224786758422852,2.3846249580383301,381854617698465
872,-4.0701427459716797,5.4587798118591309,5.7556610107421875,381854637778640
873,-1.1300631761550903,5.8418521881103516,6.9336080551147461,381854657889331
874,-0.67995327711105347,5.8035449981689453,5.6694698333740234,381854677969507
875,-0.37349545955657959,6.2057709693908691,9.9407253265380859,381854698049681
876,-3.0166940689086914,5.5066637992858887,7.7189064025878906,381854718129856
877,-4.8937482833862305,5.6407394409179688,6.7516489028930664,381854738210031
878,-5.6503162384033203,5.4492030143737793,6.9623384475708008,381854758290205
879,-3.8211460113525391,6.0142345428466797,7.2783732414245605,381854778370381
880,-1.5514427423477173,6.560112476348877,7.0964136123657227,381854798450555
881,-1.0917559862136841,6.4451909065246582,6.8857240676879883,381854818530730
882,-0.65122288465499878,6.5409588813781738,7.1442980766296387,381854838610905
883,-0.63206923007965088,6.7420721054077148,7.7667903900146484,381854858691079
884,-0.94810384511947632,6.4834980964660645,8.0636711120605469,381854878771255
885,-0.91937345266342163,6.406883716583252,7.929595947265625,381854898851429
886,-0.57460838556289673,6.3206925392150879,7.9008655548095703,381854918931604
887,-0.095768064260482788,6.2823853492736816,7.7476367950439453,381854939011779
888,0.16280572116374969,6.2153477668762207,7.575253963470459,381854959122470
889,0.31603461503982544,6.1770405769348145,7.5944075584411621,381854979202645
890,0.54587799310684204,6.1961941719055176,7.9391727447509766,381854999282820
891,0.66079968214035034,6.1770405769348145,8.0349407196044922,381855019362995
892,0.49799394607543945,6.2249245643615723,8.0540943145751953,381855039443170
893,0.66079968214035034,6.2823853492736816,7.8146743774414062,381855059523344
894,0.70868372917175293,6.2728085517883301,7.5656771659851074,381855079603519
895,0.53630119562149048,6.2823853492736816,7.3837180137634277,381855099683694
896,0.076614454388618469,6.3206925392150879,7.1538748741149902,381855119763869
897,-0.23942017555236816,6.4260373115539551,7.0772600173950195,381855139844044
898,-0.47884035110473633,6.3973069190979004,7.3262572288513184,381855159924218
899,-0.45968672633171082,6.4451909065246582,7.5944075584411621,381855180004393
900,-0.60333883762359619,6.493074893951416,7.6710224151611328,381855200084568
901,-0.68953007459640503,6.4451909065246582,7.4507555961608887,381855220195260
902,-0.63206923007965088,6.5409588813781738,7.1251444816589355,381855240275434
903,-0.62249243259429932,6.5505356788635254,6.8761472702026367,381855260355610
904,-0.58418524265289307,6.5696892738342285,6.6367273330688477,381855280435784
905,-0.5554547905921936,6.6750345230102539,6.8282632827758789,381855300515958
906,-0.83318221569061279,6.6558809280395508,7.0293760299682617,381855320596134
907,-0.98641109466552734,6.6175732612609863,7.0868368148803711,381855340676308
908,-0.97683429718017578,6.5984196662902832,7.0102224349975586,381855360756483
909,-0.70868372917175293,6.7420721054077148,6.9719152450561523,381855380836658
910,-0.78529816865921021,6.694188117980957,6.9910688400268555,381855400916832
911,-0.84275901317596436,6.7037649154663086,7.0293760299682617,381855420997008
912,-0.78529816865921021,6.7803792953491211,7.1634516716003418,381855441077182
913,-0.93852704763412476,6.7803792953491211,7.3837180137634277,381855461157357
914,-0.73741412162780762,6.7037649154663086,7.422025203704834,381855481237532
915,-0.60333883762359619,6.761225700378418,7.2400660514831543,381855501317707
916,-0.66079968214035034,6.761225700378418,6.9336080551147461,381855521397882
917,-0.56503158807754517,6.8569936752319336,6.9240312576293945,381855541478056
918,-0.69910687208175659,6.7899560928344727,7.1538748741149902,381855561558231
919,-0.72783732414245605,6.694188117980957,7.3837180137634277,381855581668923
920,-0.52672439813613892,6.7708024978637695,7.2783732414245605,381855601749097
921,-0.37349545955657959,6.761225700378418,7.115567684173584,381855621829273
922,-0.28730419278144836,6.7324953079223633,7.000645637512207,381855641909447
923,-0.49799394607543945,6.694188117980957,6.9048776626586914,381855661989622
924,-0.40222588181495667,6.6271505355834961,6.7324953079223633,381855682069797
925,-0.26815059781074524,6.7037649154663086,6.5792660713195801,381855702149971
926,-0.36391866207122803,6.6367273330688477,6.4260373115539551,381855722230147
927,-0.60333883762359619,6.5792660713195801,6.186617374420166,381855742310321
928,-0.96725749969482422,6.5696892738342285,5.3725886344909668,381855762390496
929,-0.94810384511947632,6.560112476348877,4.8650178909301758,381855782470671
930,-1.2162544727325439,6.2632317543029785,5.6215853691101074,381855802550845
931,-1.0821791887283325,5.8705825805664062,6.4164605140686035,381855822631021
932,-0.42137950658798218,5.6982002258300781,7.0868368148803711,381855842711195
933,0.41180267930030823,5.6024317741394043,7.422025203704834,381855862791369
934,0.49799394607543945,5.3821654319763184,8.0445175170898438,381855882871545
935,0.15322890877723694,5.1618990898132324,9.165003776550293,381855902951719
936,0.20111294090747833,4.9895162582397461,10.438719749450684,381855923031895
937,0.54587799310684204,4.8745946884155273,10.630255699157715,381855943112069
938,0.65122288465499878,4.9512090682983398,10.218452453613281,381855963192243
939,0.78529816865921021,4.9224786758422852,9.7587661743164062,381855983272419
940,0.73741412162780762,4.9512090682983398,9.6917285919189453,381856003352593
941,0.69910687208175659,4.903325080871582,9.5097694396972656,381856023432768
942,0.73741412162780762,4.9512090682983398,9.1171197891235352,381856043512943
943,0.5554547905921936,4.8937482833862305,9.0405054092407227,381856063593117
944,0.32561144232749939,4.9129018783569336,8.8298158645629883,381856083673293
945,0.13407529890537262,4.9416322708129883,8.5999727249145508,381856103753467
946,-0.028730420395731926,4.8841714859008789,8.4754743576049805,381856123833642
947,0.10534487664699554,4.8362874984741211,8.5137815475463867,381856143913817
948,-0.23942017555236816,4.7117891311645508,8.7244710922241211,381856163993992
949,-0.40222588181495667,4.6830587387084961,9.0213518142700195,381856184074167
950,-0.31603461503982544,4.663905143737793,9.0596590042114258,381856204154341
951,-0.20111294090747833,4.7213659286499023,9.7013053894042969,381856224234516
952,-0.37349545955657959,4.7213659286499023,10.189722061157227,381856244314691
953,-0.34476503729820251,4.7022123336791992,10.046070098876953,381856264394866
954,-0.32561144232749939,4.8554410934448242,9.9407253265380859,381856284475040
955,-0.5554547905921936,4.8841714859008789,10.295066833496094,381856304555215
956,-0.91937345266342163,5.1140146255493164,10.515334129333496,381856324635390
957,-0.89064306020736694,5.257667064666748,10.247182846069336,381856344715565
958,-0.79487496614456177,5.679046630859375,9.4235782623291016,381856364795740
959,-0.87148940563201904,6.0621185302734375,8.1307086944580078,381856384875914
960,-0.64164602756500244,6.5792660713195801,7.508216381072998,381856404956089
961,-0.63206923007965088,6.7995328903198242,6.8091096878051758,381856425036264
962,-0.58418524265289307,6.9048776626586914,6.1291561126708984,381856445116438
963,-0.49799394607543945,7.201758861541748,6.0525417327880859,381856465196614
964,-0.5554547905921936,7.1251444816589355,6.5122284889221191,381856485276788
965,-0.49799394607543945,7.2400660514831543,6.8186864852905273,381856505356963
966,-0.85233581066131592,7.4603323936462402,6.5505356788635254,381856525437138
967,-1.2449848651885986,7.3932948112487793,5.8993129730224609,381856545517312
968,-1.0342950820922852,7.4028716087341309,6.0333881378173828,381856565597488
969,-1.072602391242981,7.6518688201904297,5.6120085716247559,381856585677662
970,-1.0821791887283325,7.7189064025878906,4.9512090682983398,381856605757837
971,-1.0534487962722778,7.8434047698974609,4.2233719825744629,381856625838012
972,-0.68953007459640503,8.0445175170898438,3.4476504325866699,381856645918186
973,-0.36391866207122803,8.236053466796875,2.7868506908416748,381856665998362
974,0.057460840791463852,8.4084367752075195,2.4325089454650879,381856686078536
975,0.18195933103561401,8.5808191299438477,2.5282769203186035,381856706158710
976,0.10534487664699554,8.5329351425170898,2.873042106628418,381856726238886
977,-0.20111294090747833,8.4467439651489258,3.4476504325866699,381856746319060
978,-0.25857377052307129,8.4658975601196289,3.9456443786621094,381856766399236
979,-0.36391866207122803,8.4180135726928711,4.3861775398254395,381856786479410
980,-0.61291563510894775,8.4754743576049805,4.6543278694152832,381856806559585
981,-0.73741412162780762,8.4371671676635742,4.7405195236206055,381856826639760
982,-0.60333883762359619,8.5808191299438477,4.5872902870178223,381856846719934
983,-0.42137950658798218,8.6574335098266602,4.4532151222229004,381856866800109
984,-0.32561144232749939,8.6957406997680664,4.5681366920471191,381856886880284
985,-0.28730419278144836,8.7627782821655273,4.4340615272521973,381856906960459
986,-0.33518823981285095,8.7340478897094727,4.4340615272521973,381856927040634
987,-0.48841714859008789,8.6957406997680664,4.5585598945617676,381856947120808
988,-0.56503158807754517,8.7148942947387695,4.6447510719299316,381856967200983
989,-0.45968672633171082,8.7148942947387695,4.7979803085327148,381856987281158
990,-0.41180267930030823,8.7723550796508789,4.6830587387084961,381857007361333
991,-0.53630119562149048,8.7148942947387695,4.7405195236206055,381857027441508
992,-0.48841714859008789,8.6478567123413086,4.6734819412231445,381857047521682
993,-0.57460838556289673,8.6765871047973633,4.5106759071350098,381857067601857
994,-0.49799394607543945,8.5999727249145508,4.5202527046203613,381857087682032
995,-0.36391866207122803,8.6478567123413086,4.5585598945617676,381857107731690
996,-0.52672439813613892,8.6574335098266602,4.6351742744445801,381857127811864
997,-0.60333883762359619,8.6191263198852539,4.3861775398254395,381857147892039
998,-0.46926352381706238,8.6574335098266602,4.2137951850891113,381857167972214
999,-0.43095630407333374,8.5903959274291992,4.2616791725158691,381857188052389
1000,-0.47884035110473633,8.6478567123413086,4.2712559700012207,381857208132564
1001,-0.53630119562149048,8.6478567123413086,4.1850647926330566,381857228212738
1002,-0.64164602756500244,8.5999727249145508,4.1659107208251953,381857248292913
1003,-0.60333883762359619,8.5999727249145508,4.1850647926330566,381857268373088
1004,-0.60333883762359619,8.6670103073120117,4.395754337310791,381857288453263
1005,-0.65122288465499878,8.6670103073120117,4.3861775398254395,381857308533437
1006,-0.61291563510894775,8.7340478897094727,4.4053311347961426,381857328613612
1007,-0.62249243259429932,8.7532014846801758,4.3574471473693848,381857348693787
1008,-0.56503158807754517,8.7436246871948242,4.4723687171936035,381857368743445
1009,-0.51714754104614258,8.7244710922241211,4.6064438819885254,381857388823620
1010,-0.46926352381706238,8.7723550796508789,4.6064438819885254,381857408903795
1011,-0.49799394607543945,8.7436246871948242,4.5394062995910645,381857428983969
1012,-0.48841714859008789,8.7244710922241211,4.3861775398254395,381857449064144
1013,-0.47884035110473633,8.6957406997680664,4.4149079322814941,381857469144319
1014,-0.54587799310684204,8.6765871047973633,4.4436383247375488,381857489224494
1015,-0.5554547905921936,8.7148942947387695,4.5298295021057129,381857509304669
1016,-0.56503158807754517,8.7244710922241211,4.4532151222229004,381857529384843
1017,-0.58418524265289307,8.6191263198852539,4.2042183876037598,381857549465018
1018,-0.51714754104614258,8.6191263198852539,3.9839515686035156,381857569545193
1019,-0.42137950658798218,8.5903959274291992,4.0509891510009766,381857589625367
1020,-0.56503158807754517,8.6095495223999023,4.2042183876037598,381857609675025
1021,-0.53630119562149048,8.5329351425170898,4.1563339233398438,381857629755200
1022,-0.41180267930030823,8.4658975601196289,4.0797195434570312,381857649835375
1023,-0.60333883762359619,8.4563207626342773,4.0318355560302734,381857669915550
1024,-0.78529816865921021,8.4275903701782227,3.7732617855072021,381857689995725
1025,-0.59376204013824463,8.4563207626342773,3.8307228088378906,381857710075899
1026,-0.21068975329399109,8.4275903701782227,4.0605659484863281,381857730156074
1027,-0.057460840791463852,8.0636711120605469,4.0701427459716797,381857750236249
1028,0.24899697303771973,8.0924015045166016,4.0892963409423828,381857770316423
1029,0.42137950658798218,8.08282470703125,4.2904095649719238,381857790366081
1030,0.047884032130241394,8.0732479095458984,5.2480902671813965,381857810446257
1031,-0.45010992884635925,7.7859439849853516,5.9567737579345703,381857830526431
1032,-0.83318221569061279,7.4699091911315918,6.3494229316711426,381857850606606
1033,-0.74699091911315918,7.575253963470459,6.0716953277587891,381857870686781
1034,-0.81402856111526489,7.6805992126464844,6.406883716583252,381857890766955
1035,-1.0342950820922852,7.4411787986755371,6.7133417129516602,381857910847131
1036,-0.79487496614456177,7.3837180137634277,6.6654577255249023,381857930927305
1037,-0.77572137117385864,7.4028716087341309,6.4356141090393066,381857951007479
1038,-0.67995327711105347,7.2304892539978027,6.4643445014953613,381857971087655
1039,-0.42137950658798218,7.1442980766296387,6.8857240676879883,381857991167829
1040,-0.3926490843296051,7.0102224349975586,7.3837180137634277,381858011248005
1041,-0.36391866207122803,6.8761472702026367,7.7093296051025391,381858031297662
1042,-0.32561144232749939,6.7133417129516602,8.1115550994873047,381858051377837
1043,-0.19153612852096558,6.7133417129516602,8.2456302642822266,381858071458011
1044,-0.21068975329399109,6.6271505355834961,8.3030910491943359,381858091538187
1045,-0.38307225704193115,6.5696892738342285,8.1690158843994141,381858111618361
1046,-0.25857377052307129,6.5505356788635254,8.0445175170898438,381858131698535
1047,-0.20111294090747833,6.5888428688049316,7.623138427734375,381858151778711
1048,-0.38307225704193115,6.5505356788635254,7.4699091911315918,381858171858885
1049,-0.47884035110473633,6.4739212989807129,7.6135616302490234,381858191939061
1050,-0.45968672633171082,6.4547677040100098,7.7284832000732422,381858212019235
1051,-0.61291563510894775,6.406883716583252,7.8434047698974609,381858232099409
1052,-0.54587799310684204,6.4643445014953613,7.8338279724121094,381858252149067
1053,-0.36391866207122803,6.5218052864074707,7.6039848327636719,381858272229243
1054,-0.45968672633171082,6.4739212989807129,7.201758861541748,381858292309417
1055,-0.52672439813613892,6.4356141090393066,6.9719152450561523,381858312389593
1056,-0.51714754104614258,6.493074893951416,7.1921820640563965,381858332469767
1057,-0.50757074356079102,6.3973069190979004,7.4411787986755371,381858352549941
1058,-0.4405331015586853,6.3589997291564941,7.5273699760437012,381858372630117
1059,-0.43095630407333374,6.3973069190979004,7.3837180137634277,381858392710291
1060,-0.34476503729820251,6.3111157417297363,7.3741412162780762,381858412790466
1061,-0.34476503729820251,6.339846134185791,7.4028716087341309,381858432870641
1062,-0.40222588181495667,6.3302693367004395,7.3262572288513184,381858452950815
1063,-0.41180267930030823,6.3589997291564941,7.3645644187927246,381858473030991
1064,-0.35434186458587646,6.3206925392150879,7.4794859886169434,381858493111165
1065,-0.36391866207122803,6.2632317543029785,7.6710224151611328,381858513191340
1066,-0.43095630407333374,6.2440781593322754,7.575253963470459,381858533271515
1067,-0.5554547905921936,6.2919621467590332,7.1730284690856934,381858553351689
1068,-0.56503158807754517,6.339846134185791,7.1826052665710449,381858573431864
1069,-0.59376204013824463,6.3111157417297363,7.1251444816589355,381858593512039
1070,-0.52672439813613892,6.1004257202148438,7.268796443939209,381858613561697
1071,-0.46926352381706238,6.1483101844787598,7.201758861541748,381858633641871
1072,-0.41180267930030823,6.0525417327880859,6.7516489028930664,381858653722047
1073,-0.26815059781074524,5.9759273529052734,7.0868368148803711,381858673802221
1074,0,6.0333881378173828,7.2113356590270996,381858693882396
1075,-0.047884032130241394,5.3821654319763184,7.3837180137634277,381858713962571
1076,-0.086191259324550629,5.7365074157714844,7.6710224151611328,381858734042745
1077,-0.32561144232749939,5.0374002456665039,7.8912887573242188,381858754122921
1078,-0.15322890877723694,4.8650178909301758,8.2552070617675781,381858774203095
1079,-0.38307225704193115,4.7309427261352539,8.3797063827514648,381858794252753
1080,-0.82360535860061646,4.5968670845031738,9.0883893966674805,381858814332928
1081,-1.1300631761550903,4.1371803283691406,9.9311485290527344,381858834413103
1082,-0.63206923007965088,4.0892963409423828,10.113107681274414,381858854493277
1083,-0.13407529890537262,4.242525577545166,10.400412559509277,381858874573452
1084,-0.15322890877723694,4.0701427459716797,10.563218116760254,381858894653627
1085,-0.10534487664699554,4.0797195434570312,10.544064521789551,381858914733802
1086,-0.29688102006912231,4.041412353515625,10.093954086303711,381858934813977
1087,-0.37349545955657959,4.1659107208251953,9.4618854522705078,381858954863635
1088,-0.33518823981285095,4.2808327674865723,8.9064302444458008,381858974943809
1089,-0.48841714859008789,4.2616791725158691,8.8681230545043945,381858995023984
1090,-0.33518823981285095,4.0605659484863281,8.705317497253418,381859015104159
1091,-0.047884032130241394,4.3382935523986816,8.236053466796875,381859035184333
1092,-0.23942017555236816,4.309563159942627,8.2552070617675781,381859055264508
1093,-0.47884035110473633,4.1180267333984375,7.7093296051025391,381859075344683
1094,-0.60333883762359619,3.9839515686035156,7.4603323936462402,381859095424858
1095,-0.91937345266342163,4.0797195434570312,8.7148942947387695,381859115474515
1096,-1.0917559862136841,3.6296098232269287,9.0213518142700195,381859135554691
1097,-0.7661445140838623,3.5625722408294678,8.9830446243286133,381859155634865
1098,-0.78529816865921021,3.1699230670928955,8.8968534469604492,381859175715040
1099,-0.40222588181495667,3.2178070545196533,9.1171197891235352,381859195795215
1100,-0.06703764945268631,3.4572272300720215,10.074800491333008,381859215875389
1101,-0.69910687208175659,2.6623523235321045,10.381258964538574,381859235955564
1102,-0.54587799310684204,2.6336219310760498,10.850522041320801,381859256035739
1103,-0.60333883762359619,2.6431987285614014,10.898406028747559,381859276085397
1104,-0.52672439813613892,2.5378537178039551,10.620678901672363,381859296165572
1105,-0.36391866207122803,2.7964274883270264,10.218452453613281,381859316245747
1106,-0.51714754104614258,2.8921957015991211,10.007762908935547,381859336325921
1107,-0.94810384511947632,2.9017724990844727,10.074800491333008,381859356406096
1108,-1.1492167711257935,2.9496564865112305,10.295066833496094,381859376486271
1109,-1.522712230682373,3.0550012588500977,10.093954086303711,381859396566446
1110,-1.7525556087493896,3.1986534595489502,9.7013053894042969,381859416646620
1111,-1.8770540952682495,3.3710360527038574,9.6246910095214844,381859436726795
1112,-1.7812861204147339,3.600879430770874,9.5193462371826172,381859456806970
1113,-1.6089035272598267,3.600879430770874,8.4946279525756836,381859476887145
1114,1.3215993642807007,3.7253777980804443,8.1211318969726562,381859496967320
1115,1.436521053314209,5.4204726219177246,9.5289230346679688,381859517047494
1116,-0.66079968214035034,3.9456443786621094,9.7396125793457031,381859537127669
1117,-0.51714754104614258,4.8841714859008789,9.1937341690063477,381859557207844
1118,-0.72783732414245605,4.6447510719299316,9.4523086547851562,381859577288019
1119,-0.59376204013824463,4.817133903503418,8.9830446243286133,381859597368194
1120,-0.26815059781074524,4.7979803085327148,9.567230224609375,381859617448368
1121,0.25857377052307129,4.8650178909301758,9.4810390472412109,381859637528543
1122,0.46926352381706238,5.1906294822692871,9.2607717514038086,381859657608718
1123,0.26815059781074524,5.1427450180053711,8.944737434387207,381859677688892
1124,0.3926490843296051,5.2193598747253418,8.8681230545043945,381859697769068
1125,0.26815059781074524,5.3821654319763184,8.6670103073120117,381859717849242
1126,0.15322890877723694,5.4970870018005371,8.5042047500610352,381859737929417
1127,0.50757074356079102,5.5353941917419434,7.9583263397216797,381859758009592
1128,0.57460838556289673,6.1291561126708984,7.2975268363952637,381859778089766
1129,0.30645781755447388,6.2919621467590332,5.5162405967712402,381859798169942
1130,-1.0917559862136841,6.3015389442443848,6.1483101844787598,381859818250116
1131,-1.2258312702178955,6.186617374420166,8.2647838592529297,381859838330290
1132,-1.1971008777618408,6.5984196662902832,9.5193462371826172,381859858410466
1133,-3.2752678394317627,7.9774799346923828,10.898406028747559,381859878490640
1134,-2.3463177680969238,7.1921820640563965,8.7723550796508789,381859898570816
1135,1.0630255937576294,5.7652378082275391,6.8857240676879883,381859918650990
1136,0.36391866207122803,6.0908489227294922,5.6407394409179688,381859938731165
1137,-1.2258312702178955,6.3685765266418457,5.5353941917419434,381859958811340
1138,-0.77572137117385864,6.253654956817627,6.1578869819641113,381859978860998
1139,-0.78529816865921021,6.5505356788635254,7.0964136123657227,381859998941172
1140,0.1149216815829277,6.4643445014953613,8.1307086944580078,381860019021348
1141,0.80445176362991333,6.5122284889221191,7.5561003684997559,381860039101522
1142,-0.13407529890537262,6.694188117980957,6.0142345428466797,381860059181696
1143,-1.7525556087493896,7.6901760101318359,5.9471969604492188,381860079261872
1144,-2.0877439975738525,7.9774799346923828,4.309563159942627,381860099342046
1145,-0.52672439813613892,7.508216381072998,3.7349545955657959,381860119422221
1146,-0.17238251864910126,8.0540943145751953,3.4380736351013184,381860139502396
1147,-0.50757074356079102,8.3797063827514648,2.8251581192016602,381860159582570
1148,-0.68953007459640503,8.236053466796875,3.9743747711181641,381860179662746
1149,-0.40222588181495667,8.2264766693115234,5.4204726219177246,381860199742920
1150,-0.75656771659851074,8.1211318969726562,6.5505356788635254,381860219823095
1151,-0.51714754104614258,7.7572135925292969,5.9759273529052734,381860239903270
1152,-1.436521053314209,7.3358340263366699,4.9799394607543945,381860259983444
1153,-1.2066776752471924,7.201758861541748,5.0852842330932617,381860280063619
1154,-0.5554547905921936,7.5369467735290527,5.0469770431518555,381860300143794
1155,0.12449848651885986,7.9870567321777344,4.903325080871582,381860320223969
1156,0.21068975329399109,8.0540943145751953,4.8267107009887695,381860340273626
1157,-0.12449848651885986,7.8817119598388672,4.7884035110473633,381860360353802
1158,-0.086191259324550629,7.9774799346923828,4.5872902870178223,381860380433976
1159,0.28730419278144836,8.2743606567382812,4.4244847297668457,381860400514151
1160,0.57460838556289673,8.5042047500610352,4.548983097076416,381860420594326
1161,0.43095630407333374,8.5042047500610352,4.8745946884155273,381860440674501
1162,0.42137950658798218,8.5042047500610352,5.1906294822692871,381860460754675
1163,0.43095630407333374,8.5808191299438477,5.5737013816833496,381860480834850
1164,0.22026655077934265,8.485051155090332,5.6024317741394043,381860500915025
1165,0.019153613597154617,8.3605527877807617,5.6694698333740234,381860520964683
1166,0.057460840791463852,8.3413991928100586,6.2057709693908691,381860541044858
1167,0.15322890877723694,8.3126678466796875,6.6846113204956055,381860561125032
1168,0.057460840791463852,8.2073230743408203,6.6846113204956055,381860581205207
1169,-0.10534487664699554,8.1211318969726562,6.4260373115539551,381860601285382
1170,-0.41180267930030823,8.0062103271484375,5.6982002258300781,381860621365557
1171,-0.40222588181495667,7.9870567321777344,5.4013190269470215,381860641445732
1172,-0.43095630407333374,7.9583263397216797,5.2768206596374512,381860661525906
1173,-0.1149216815829277,8.0636711120605469,5.679046630859375,381860681606081
1174,0.10534487664699554,8.1115550994873047,5.9184665679931641,381860701686256
1175,0.095768064260482788,8.0540943145751953,5.6694698333740234,381860721735914
1176,-0.0095768067985773087,8.0253639221191406,5.5928549766540527,381860741816088
1177,-0.057460840791463852,8.0540943145751953,5.5545477867126465,381860761896263
1178,-0.19153612852096558,8.08282470703125,5.5737013816833496,381860781976438
1179,-0.17238251864910126,8.1785926818847656,5.7460842132568359,381860802056613
1180,-0.13407529890537262,8.1785926818847656,5.6598930358886719,381860822136788
1181,-0.038307227194309235,8.3318214416503906,5.2097830772399902,381860842216962
1182,-0.086191259324550629,8.4658975601196289,4.8554410934448242,381860862297137
1183,-0.1149216815829277,8.3701295852661133,4.8554410934448242,381860882377312
1184,-0.28730419278144836,8.2839374542236328,4.9895162582397461,381860902426970
1185,-0.31603461503982544,8.1594390869140625,5.3438582420349121,381860922507145
1186,0.038307227194309235,8.2839374542236328,5.4587798118591309,381860942587319
1187,0.13407529890537262,8.4275903701782227,5.7460842132568359,381860962667494
1188,0.23942017555236816,8.4180135726928711,5.5258173942565918,381860982747669
1189,0.15322890877723694,8.485051155090332,5.2672438621520996,381861002827844
1190,0.37349545955657959,8.6287031173706055,5.5928549766540527,381861022908019
1191,0.43095630407333374,8.6574335098266602,5.5449709892272949,381861042988193
1192,0.50757074356079102,8.6861639022827148,4.7788267135620117,381861063068368
1193,0.65122288465499878,8.9064302444458008,4.395754337310791,381861083148543
1194,0.61291563510894775,8.7627782821655273,4.1467571258544922,381861103228717
1195,0.53630119562149048,8.8872766494750977,3.7732617855072021,381861123308893
1196,0.18195933103561401,8.8202390670776367,3.5625722408294678,381861143389067
1197,0.095768064260482788,8.7436246871948242,3.5146880149841309,381861163469242
1198,0.30645781755447388,8.8298158645629883,3.7253777980804443,381861183549417
1199,0.53630119562149048,8.8298158645629883,3.8594532012939453,381861203629591
1200,0.5554547905921936,8.7340478897094727,3.8307228088378906,381861223679249
1201,0.57460838556289673,8.6287031173706055,3.8402996063232422,381861243759424
1202,0.52672439813613892,8.5999727249145508,4.2233719825744629,381861263705215
1203,0.64164602756500244,8.705317497253418,3.6296098232269287,381861283785390
1204,0.41180267930030823,8.8393926620483398,3.3518824577331543,381861303865565
1205,0.21068975329399109,8.7436246871948242,3.2082302570343018,381861323945739
1206,0.32561144232749939,8.7627782821655273,2.9783868789672852,381861344025914
1207,0.48841714859008789,8.7723550796508789,2.8921957015991211,381861364106089
1208,0.64164602756500244,8.8681230545043945,3.1603462696075439,381861384186264
1209,0.77572137117385864,8.8776998519897461,3.026270866394043,381861404235921
1210,0.68953007459640503,8.8968534469604492,2.8347349166870117,381861424316097
1211,0.54587799310684204,8.8202390670776367,2.3463177680969238,381861444396271
1212,0.46926352381706238,8.7627782821655273,2.0781669616699219,381861464476446
1213,0.53630119562149048,8.858546257019043,2.1547815799713135,381861484556621
1214,0.73741412162780762,8.791508674621582,2.0590133666992188,381861504636795
1215,0.80445176362991333,8.7532014846801758,2.1356279850006104,381861524716971
1216,0.87148940563201904,8.6957406997680664,3.4284968376159668,381861544797145
1217,0.4405331015586853,8.5329351425170898,5.5353941917419434,381861564877320
1218,0.38307225704193115,8.2552070617675781,6.8761472702026367,381861584957495
1219,0.36391866207122803,8.4275903701782227,7.0772600173950195,381861605037669
1220,0.30645781755447388,8.4467439651489258,6.3685765266418457,381861625087327
1221,0.028730420395731926,8.485051155090332,5.8131217956542969,381861645167502
1222,0.12449848651885986,8.5425119400024414,5.9376201629638672,381861665247677
1223,0.22026655077934265,8.6574335098266602,6.186617374420166,381861685327851
1224,0.15322890877723694,8.5999727249145508,6.0238113403320312,381861705408027
1225,0.22984336316585541,8.638279914855957,6.2249245643615723,381861725488201
1226,0.22026655077934265,8.5712423324584961,5.7077770233154297,381861745568376
1227,0.086191259324550629,8.552088737487793,5.3151278495788574,381861765648551
1228,-0.15322890877723694,8.3701295852661133,5.4492030143737793,381861785728725
1229,-0.0095768067985773087,8.4371671676635742,5.3821654319763184,381861805808901
1230,0.028730420395731926,8.4084367752075195,5.0086698532104492,381861825889075
1231,-0.057460840791463852,8.4084367752075195,4.8841714859008789,381861845969249
1232,0.095768064260482788,8.485051155090332,5.5258173942565918,381861866049425
1233,0.14365209639072418,8.4467439651489258,5.6120085716247559,381861886099083
1234,0.06703764945268631,8.4275903701782227,5.0469770431518555,381861906179257
1235,0.32561144232749939,8.5903959274291992,4.9895162582397461,381861926259433
1236,0.45010992884635925,8.6670103073120117,4.7979803085327148,381861946339607
1237,0.45968672633171082,8.8298158645629883,4.6734819412231445,381861966419781
1238,0.51714754104614258,8.7244710922241211,4.1563339233398438,381861986499957
1239,0.60333883762359619,8.9351606369018555,3.4763808250427246,381862006580131
1240,0.75656771659851074,9.0021982192993164,3.8498764038085938,381862026660306
1241,0.89064306020736694,9.0596590042114258,3.6774938106536865,381862046740481
1242,1.0247182846069336,9.2128877639770508,3.466804027557373,381862066820655
1243,0.96725749969482422,9.2033109664916992,3.2561142444610596,381862086900831
1244,0.93852704763412476,9.0213518142700195,2.9975404739379883,381862106950489
1245,0.86191260814666748,9.0213518142700195,2.9975404739379883,381862127030663
1246,0.98641109466552734,9.0213518142700195,3.2082302570343018,381862147110837
1247,1.0630255937576294,9.1075429916381836,3.3710360527038574,381862167191013
1248,0.99598789215087891,9.011775016784668,3.313575267791748,381862187271187
1249,0.91937345266342163,9.0692358016967773,3.0645780563354492,381862207351363
1250,0.92895025014877319,9.0500822067260742,2.7772738933563232,381862227431537
1251,0.82360535860061646,9.1362733840942383,2.5282769203186035,381862247511711
1252,0.90021985769271851,9.1745805740356445,2.5474305152893066,381862267591887
1253,0.83318221569061279,9.0883893966674805,2.8443117141723633,381862287641545
1254,0.60333883762359619,8.9926214218139648,2.9783868789672852,381862307721719
1255,0.45010992884635925,8.9160070419311523,2.8634653091430664,381862327801894
1256,0.41180267930030823,8.8872766494750977,2.738966703414917,381862347882069
1257,0.52672439813613892,9.0788125991821289,2.7293899059295654,381862367962243
1258,0.79487496614456177,9.0309286117553711,3.2178070545196533,381862388042419
1259,0.94810384511947632,9.165003776550293,3.246537446975708,381862408122593
1260,0.88106620311737061,9.2224645614624023,3.2848446369171143,381862428202768
1261,0.66079968214035034,9.1937341690063477,3.533841609954834,381862448282943
1262,0.74699091911315918,9.1362733840942383,3.3231520652770996,381862468363117
1263,0.73741412162780762,9.3565406799316406,3.1220390796661377,381862488443292
1264,0.65122288465499878,9.2320413589477539,3.1699230670928955,381862508523467
1265,0.75656771659851074,9.1745805740356445,3.2178070545196533,381862528603642
1266,0.74699091911315918,9.2607717514038086,3.3710360527038574,381862548653299
1267,0.71826052665710449,9.1841573715209961,3.5529952049255371,381862568733475
1268,0.72783732414245605,9.097966194152832,3.6296098232269287,381862588813649
1269,0.67995327711105347,9.1171197891235352,3.3614592552185059,381862608893824
1270,0.59376204013824463,9.1171197891235352,3.1316158771514893,381862628973999
1271,0.5554547905921936,9.0883893966674805,2.8921957015991211,381862649054173
1272,0.56503158807754517,9.0883893966674805,3.026270866394043,381862669134348
1273,0.85233581066131592,9.1841573715209961,3.2273838520050049,381862689214523
1274,0.86191260814666748,9.2320413589477539,3.1603462696075439,381862709294698
1275,0.70868372917175293,9.1362733840942383,3.3997664451599121,381862729374873
1276,0.64164602756500244,9.1841573715209961,3.2656910419464111,381862749455047
1277,0.70868372917175293,9.1266965866088867,3.4955344200134277,381862769535222
1278,0.79487496614456177,9.1937341690063477,3.1699230670928955,381862789615397
1279,0.59376204013824463,9.1171197891235352,2.8347349166870117,381862809695572
1280,0.54587799310684204,9.0788125991821289,2.7964274883270264,381862829775747
1281,0.65122288465499878,9.1171197891235352,3.1794998645782471,381862849855921
1282,0.6703764796257019,9.0788125991821289,3.4380736351013184,381862869936096
1283,0.6703764796257019,9.0596590042114258,3.2561142444610596,381862890016271
1284,0.70868372917175293,9.1266965866088867,3.2178070545196533,381862910096446
1285,0.7661445140838623,9.1458501815795898,3.3423056602478027,381862930176620
1286,0.75656771659851074,9.097966194152832,3.2848446369171143,381862950256796
1287,0.65122288465499878,9.0788125991821289,3.2178070545196533,381862970306453
1288,0.54587799310684204,8.9543142318725586,3.1124622821807861,381862990386628
1289,0.48841714859008789,9.0405054092407227,3.5434184074401855,381863010497320
1290,0.68953007459640503,8.9926214218139648,3.8786067962646484,381863030577494
1291,0.52672439813613892,8.9351606369018555,3.2369606494903564,381863050657670
1292,0.4405331015586853,8.858546257019043,2.9783868789672852,381863070737844
1293,0.34476503729820251,8.858546257019043,3.1316158771514893,381863090818018
1294,0.4405331015586853,8.6478567123413086,2.7293899059295654,381863110898194
1295,0.23942017555236816,8.4946279525756836,2.873042106628418,381863130978368
1296,0.26815059781074524,8.2552070617675781,3.1699230670928955,381863151058544
1297,0.45968672633171082,8.2552070617675781,3.754108190536499,381863171138718
1298,0.81402856111526489,8.2264766693115234,4.8841714859008789,381863191218892
1299,0.97683429718017578,8.1307086944580078,5.5449709892272949,381863211268550
1300,0.42137950658798218,8.0924015045166016,6.0908489227294922,381863231348726
1301,0.23942017555236816,7.8625583648681641,6.5122284889221191,381863251459418
1302,0.22026655077934265,7.9104423522949219,6.7037649154663086,381863271509075
1303,0.24899697303771973,7.8625583648681641,6.5792660713195801,381863291589250
1304,-0.028730420395731926,7.6997528076171875,6.4164605140686035,381863311669424
1305,0.086191259324550629,7.6901760101318359,6.3494229316711426,381863331749600
1306,0.076614454388618469,7.6039848327636719,6.1674637794494629,381863351829774
1307,-0.086191259324550629,7.5273699760437012,6.1578869819641113,381863371909948
1308,0.12449848651885986,7.4124484062194824,6.5122284889221191,381863391990124
1309,0.25857377052307129,7.4699091911315918,7.0197992324829102,381863412070298
1310,0.5554547905921936,7.5465235710144043,6.9910688400268555,381863432150474
1311,0.32561144232749939,7.4028716087341309,6.8378400802612305,381863452230648
1312,0.047884032130241394,7.2783732414245605,6.7324953079223633,381863472310823
1313,-0.095768064260482788,7.2496428489685059,6.6750345230102539,381863492390998
1314,0.21068975329399109,7.2304892539978027,6.8091096878051758,381863512440656
1315,0.24899697303771973,7.1826052665710449,6.7324953079223633,381863532520830
1316,0,6.9431848526000977,7.2113356590270996,381863552601005
1317,-0.16280572116374969,6.9431848526000977,7.3837180137634277,381863572681180
1318,-0.038307227194309235,6.8569936752319336,7.2304892539978027,381863592761354
1319,-0.13407529890537262,6.7324953079223633,7.3932948112487793,381863612841530
1320,-0.21068975329399109,6.6846113204956055,7.3932948112487793,381863632921704
1321,-0.17238251864910126,6.6846113204956055,7.575253963470459,381863653001879
1322,-0.095768064260482788,6.6750345230102539,7.3645644187927246,381863673082054
1323,-0.21068975329399109,6.6463041305541992,7.1059904098510742,381863693162228
1324,-0.22026655077934265,6.6175732612609863,7.067683219909668,381863713242404
1325,-0.35434186458587646,6.5026516914367676,7.0772600173950195,381863733322578
1326,-0.10534487664699554,6.560112476348877,7.2592196464538574,381863753402753
1327,-0.028730420395731926,6.5026516914367676,7.000645637512207,381863773482928
1328,-0.16280572116374969,6.4834980964660645,7.2113356590270996,381863793563102
1329,-0.22984336316585541,6.3015389442443848,7.1442980766296387,381863813643277
1330,-0.41180267930030823,6.2153477668762207,7.0293760299682617,381863833723452
1331,-0.28730419278144836,6.1770405769348145,6.9910688400268555,381863853803627
1332,-0.095768064260482788,6.1770405769348145,7.3837180137634277,381863873883802
1333,-0.019153613597154617,6.1387333869934082,7.4507555961608887,381863893963976
1334,0.20111294090747833,6.0621185302734375,7.5369467735290527,381863914044151
1335,-0.0095768067985773087,5.9950809478759766,7.4699091911315918,381863934124326
1336,-0.13407529890537262,5.8226985931396484,7.5944075584411621,381863954204501
1337,-0.0095768067985773087,5.7365074157714844,8.0924015045166016,381863974284675
1338,0.29688102006912231,5.7939682006835938,8.1402854919433594,381863994364850
1339,0.28730419278144836,5.6694698333740234,8.2839374542236328,381864014445025
1340,0.19153612852096558,5.564124584197998,8.4275903701782227,381864034525200
1341,0.21068975329399109,5.4970870018005371,8.552088737487793,381864054574858
1342,0.21068975329399109,5.3725886344909668,8.3222446441650391,381864074655033
1343,0.17238251864910126,5.410895824432373,8.3605527877807617,381864094735207
1344,0.31603461503982544,5.3151278495788574,8.8776998519897461,381864114815382
1345,0.22026655077934265,5.1140146255493164,9.0692358016967773,381864134895557
1346,0.06703764945268631,5.0182466506958008,9.0788125991821289,381864154975731
1347,0.22026655077934265,5.0182466506958008,8.8968534469604492,381864175055907
1348,0.18195933103561401,5.0374002456665039,8.5233583450317383,381864195136081
1349,0.047884032130241394,4.8745946884155273,8.5425119400024414,381864215216256
1350,0.028730420395731926,4.817133903503418,9.1075429916381836,381864235296431
1351,0.13407529890537262,4.6926355361938477,9.1075429916381836,381864255376605
1352,-0.1149216815829277,4.5777134895324707,8.9926214218139648,381864275456781
1353,-0.095768064260482788,4.5010991096496582,8.8681230545043945,381864295536955
1354,0,4.5202527046203613,9.0596590042114258,381864315617130
1355,0.028730420395731926,4.5106759071350098,8.9064302444458008,381864335697305
1356,-0.0095768067985773087,4.3382935523986816,8.8872766494750977,381864355777479
1357,-0.22984336316585541,4.2042183876037598,8.8776998519897461,381864375857655
1358,-0.18195933103561401,4.2233719825744629,8.858546257019043,381864395937829
1359,-0.16280572116374969,4.1467571258544922,8.8393926620483398,381864415987487
1360,-0.21068975329399109,4.1467571258544922,8.9160070419311523,381864436067661
1361,-0.32561144232749939,3.9169139862060547,8.858546257019043,381864456147837
1362,-0.18195933103561401,4.0605659484863281,8.4754743576049805,381864476228011
1363,-0.20111294090747833,3.8594532012939453,8.2647838592529297,381864496308186
1364,-0.17238251864910126,3.7828385829925537,8.858546257019043,381864516388361
1365,-0.16280572116374969,3.6487634181976318,9.3278102874755859,381864536468535
1366,-0.15322890877723694,3.5242648124694824,9.4810390472412109,381864556548711
1367,0.076614454388618469,3.7349545955657959,9.2895021438598633,381864576628885
1368,0.086191259324550629,3.6391866207122803,8.9160070419311523,381864596709060
1369,-0.12449848651885986,3.2752678394317627,9.1841573715209961,381864616789235
1370,-0.25857377052307129,3.1220390796661377,9.1937341690063477,381864636869409
1371,-0.24899697303771973,3.093308687210083,9.4235782623291016,381864656949585
1372,-0.095768064260482788,2.9400796890258789,9.7108821868896484,381864677029759
1373,-0.10534487664699554,2.8443117141723633,9.6629981994628906,381864697109934
1374,-0.057460840791463852,2.6144683361053467,9.5959606170654297,381864717190109
1375,-0.19153612852096558,2.5091233253479004,9.7874965667724609,381864737270283
1376,-0.21068975329399109,2.4325089454650879,9.7300357818603516,381864757350459
1377,-0.29688102006912231,2.3558945655822754,9.3661174774169922,381864777430633
1378,-0.15322890877723694,2.2601263523101807,9.5384998321533203,381864797510808
1379,-0.095768064260482788,2.0207061767578125,9.6151142120361328,381864817590983
1380,-0.21068975329399109,1.8195933103561401,9.7779197692871094,381864837671157
1381,-0.24899697303771973,1.5897499322891235,9.8449573516845703,381864857751332
1382,-0.21068975329399109,1.5514427423477173,9.9694557189941406,381864877831507
1383,-0.057460840791463852,1.6089035272598267,10.093954086303711,381864897911682
1384,-0.028730420395731926,1.3694833517074585,10.199298858642578,381864917991857
1385,-0.019153613597154617,1.2354080677032471,10.199298858642578,381864938072031
1386,-0.17238251864910126,0.95768070220947266,10.228029251098633,381864958152206
1387,-0.28730419278144836,0.79487496614456177,10.20887565612793,381864978232381
1388,-0.20111294090747833,0.71826052665710449,10.371682167053223,381864998312556
1389,-0.047884032130241394,0.68953007459640503,10.160991668701172,381865018362213
1390,0.06703764945268631,0.68953007459640503,10.170568466186523,381865038442388
1391,0.019153613597154617,0.72783732414245605,10.189722061157227,381865058522563
1392,0.038307227194309235,0.53630119562149048,10.15141487121582,381865078602738
1393,-0.15322890877723694,0.32561144232749939,10.199298858642578,381865098682913
1394,-0.028730420395731926,0.36391866207122803,10.304644584655762,381865118763088
1395,0.086191259324550629,0.45010992884635925,10.093954086303711,381865138843262
1396,-0.086191259324550629,0.37349545955657959,9.720458984375,381865158923437
1397,-0.24899697303771973,0.22984336316585541,9.4427318572998047,381865179003612
1398,-0.24899697303771973,0.24899697303771973,9.165003776550293,381865199083787
1399,-0.019153613597154617,0.38307225704193115,8.9734678268432617,381865219163962
1400,0.30645781755447388,0.64164602756500244,8.4658975601196289,381865239244136
1401,0.59376204013824463,0.91937345266342163,7.6039848327636719,381865259324311
1402,1.015141487121582,1.3120225667953491,7.0485296249389648,381865279404486
1403,1.4269442558288574,1.6376339197158813,6.7995328903198242,381865299484660
1404,1.4173674583435059,1.5610195398330688,7.000645637512207,381865319564836
1405,1.292868971824646,1.1300631761550903,7.1634516716003418,381865339645010
1406,1.292868971824646,0.52672439813613892,6.5505356788635254,381865359725185
1407,0.84275901317596436,0.1149216815829277,5.5545477867126465,381865379805360
1408,0.68953007459640503,0.095768064260482788,5.0948610305786133,381865399885534
1409,0.66079968214035034,0.24899697303771973,4.9512090682983398,381865419965710
1410,0.61291563510894775,0.29688102006912231,5.0374002456665039,381865440045884
1411,1.1683704853057861,0.56503158807754517,6.1770405769348145,381865460126058
1412,1.6759412288665771,0.68953007459640503,7.8434047698974609,381865480206234
1413,2.0398597717285156,0.22984336316585541,8.9064302444458008,381865500286408
1414,1.9728221893310547,-0.78529816865921021,9.2416181564331055,381865520366584
1415,0.83318221569061279,-1.1300631761550903,10.429142951965332,381865540446758
1416,1.3694833517074585,-1.4939818382263184,11.405977249145508,381865560526932
1417,1.4556746482849121,-1.580173134803772,11.712434768676758,381865580607108
1418,2.2218191623687744,-1.3215993642807007,12.143390655517578,381865600687282
1419,2.5474305152893066,-1.4556746482849121,13.330915451049805,381865620767458
1420,1.6759412288665771,-1.7812861204147339,15.322891235351562,381865640817114
1421,1.8962076902389526,-1.5993267297744751,16.950948715209961,381865660897290
1422,1.8483237028121948,-1.2258312702178955,16.903064727783203,381865680977464
1423,2.0302829742431641,-0.94810384511947632,15.294160842895508,381865701057640
1424,2.1835119724273682,-0.63206923007965088,12.746729850769043,381865721137814
1425,2.3271639347076416,-0.38307225704193115,10.860098838806152,381865741217989
1426,1.9536685943603516,-0.086191259324550629,10.429142951965332,381865761298164
1427,2.7006595134735107,-0.67995327711105347,10.371682167053223,381865781378338
1428,3.3231520652770996,-1.1013327836990356,10.687716484069824,381865801458514
1429,3.8594532012939453,-0.91937345266342163,11.042057991027832,381865821538688
1430,3.9264907836914062,-1.0438719987869263,10.78348445892334,381865841618863
1431,3.8594532012939453,-1.0342950820922852,10.113107681274414,381865861699038
1432,3.1890766620635986,-0.70868372917175293,9.6629981994628906,381865881779212
1433,3.4476504325866699,-0.91937345266342163,9.2607717514038086,381865901859387
1434,3.3614592552185059,-1.3215993642807007,8.944737434387207,381865921939562
1435,3.533841609954834,-1.6280571222305298,8.552088737487793,381865942019737
1436,3.4572272300720215,-1.7142484188079834,8.1881694793701172,381865962099912
1437,4.6447510719299316,-1.9345149993896484,-1.3790601491928101,381865982180086
1438,2.8634653091430664,-1.4173674583435059,3.0454244613647461,381866002260261
1439,2.2505495548248291,-1.7812861204147339,0.30645781755447388,381866022340436
1440,4.5872902870178223,-3.9839515686035156,22.313959121704102,381866042420611
1441,3.4189200401306152,-1.944091796875,9.9503021240234375,381866062470268
1442,3.5242648124694824,-1.723825216293335,9.6534214019775391,381866082550443
1443,4.8554410934448242,-3.8402996063232422,9.3565406799316406,381866102630618
1444,3.2944214344024658,-0.93852704763412476,9.1362733840942383,381866122710793
1445,3.533841609954834,-1.9153614044189453,9.5289230346679688,381866142790968
1446,3.8786067962646484,-0.65122288465499878,9.4618854522705078,381866162871142
1447,3.9169139862060547,-0.4405331015586853,9.3565406799316406,381866182951317
1448,3.3901896476745605,-0.62249243259429932,8.4467439651489258,381866203031492
1449,4.1659107208251953,-0.68953007459640503,9.7683429718017578,381866223111667
1450,3.4763808250427246,-0.38307225704193115,9.5097694396972656,381866243191842
1451,2.959233283996582,-0.28730419278144836,9.3565406799316406,381866263272017
1452,2.9496564865112305,-0.22026655077934265,9.7491893768310547,381866283352191
1453,2.6815059185028076,-0.35434186458587646,9.9119949340820312,381866303432366
1454,2.5761611461639404,-0.36391866207122803,9.6151142120361328,381866323512541
1455,2.3942017555236816,-0.33518823981285095,9.7683429718017578,381866343592715
1456,2.1356279850006104,-0.25857377052307129,9.8353805541992188,381866363672891
1457,2.0207061767578125,-0.22984336316585541,9.7970733642578125,381866383722548
1458,1.9057846069335938,-0.4405331015586853,9.8353805541992188,381866403802723
1459,1.7334020137786865,-0.35434186458587646,9.9024181365966797,381866423882898
1460,1.522712230682373,-0.33518823981285095,9.9119949340820312,381866443963073
1461,1.3886369466781616,-0.31603461503982544,9.9981861114501953,381866464043247
1462,1.3311761617660522,-0.36391866207122803,9.8832645416259766,381866484123422
1463,1.2258312702178955,-0.35434186458587646,9.9119949340820312,381866504203597
1464,1.072602391242981,-0.35434186458587646,9.7874965667724609,381866524283771
1465,0.90021985769271851,-0.38307225704193115,9.7013053894042969,381866544363947
1466,0.78529816865921021,-0.34476503729820251,9.8353805541992188,381866564444121
1467,-0.90979665517807007,-0.43095630407333374,3.4380736351013184,381866584524296
1468,0.28730419278144836,-0.13407529890537262,10.812214851379395,381866604604471
1469,-0.047884032130241394,-0.13407529890537262,9.9790325164794922,381866624684645
1470,0.019153613597154617,-0.22026655077934265,10.20887565612793,381866644764821
1471,-0.0095768067985773087,-0.25857377052307129,9.9981861114501953,381866664844995
1472,0,-0.40222588181495667,9.4906158447265625,381866684925170
1473,-0.1149216815829277,-0.31603461503982544,10.218452453613281,381866705005345
1474,-0.06703764945268631,-0.24899697303771973,10.189722061157227,381866725085519
1475,0,-0.34476503729820251,9.8641109466552734,381866745165695
1476,-0.047884032130241394,-0.31603461503982544,10.02691650390625,381866765245869
1477,-0.047884032130241394,-0.35434186458587646,10.036493301391602,381866785326043
1478,-0.028730420395731926,-0.2777273952960968,9.8832645416259766,381866805406219
1479,0.0095768067985773087,-0.2777273952960968,10.02691650390625,381866825486393
1480,-0.028730420395731926,-0.32561144232749939,10.046070098876953,381866845566569
1481,0.019153613597154617,-0.33518823981285095,9.9119949340820312,381866865646743
1482,0.019153613597154617,-0.29688102006912231,10.02691650390625,381866885726918
1483,-0.019153613597154617,-0.2777273952960968,10.074800491333008,381866905807093
1484,-0.057460840791463852,-0.32561144232749939,10.02691650390625,381866925887267
1485,0,-0.2777273952960968,9.9981861114501953,381866945967442
1486,-0.019153613597154617,-0.30645781755447388,10.074800491333008,381866966047617
1487,-0.10534487664699554,-0.29688102006912231,10.017339706420898,381866986127792
1488,0.019153613597154617,-0.33518823981285095,9.9886093139648438,381867006207967
1489,-0.0095768067985773087,-0.30645781755447388,10.036493301391602,381867026257625
1490,-0.057460840791463852,-0.28730419278144836,10.007762908935547,381867046337799
1491,-0.019153613597154617,-0.2777273952960968,10.02691650390625,381867066417974
1492,0.0095768067985773087,-0.33518823981285095,10.046070098876953,381867086498149
1493,-0.0095768067985773087,-0.33518823981285095,9.9886093139648438,381867106578323
1494,-0.028730420395731926,-0.35434186458587646,10.065223693847656,381867126658499
1495,-0.06703764945268631,-0.2777273952960968,10.02691650390625,381867146738673
1496,-0.047884032130241394,-0.31603461503982544,10.046070098876953,381867166818848
1497,-0.028730420395731926,-0.32561144232749939,10.02691650390625,381867186899023
1498,-0.0095768067985773087,-0.30645781755447388,10.007762908935547,381867206979197
1499,0.0095768067985773087,-0.33518823981285095,10.065223693847656,381867227059372
1500,0.06703764945268631,-0.3926490843296051,10.036493301391602,381867247139547
1501,-0.028730420395731926,-0.2777273952960968,9.9981861114501953,381867267219722
1502,-0.038307227194309235,-0.32561144232749939,9.9790325164794922,381867287299897
1503,-0.038307227194309235,-0.28730419278144836,9.9981861114501953,381867307380071
1504,-0.028730420395731926,-0.31603461503982544,9.9886093139648438,381867327460246
1505,0.047884032130241394,-0.3926490843296051,10.074800491333008,381867347540421
1506,-0.047884032130241394,-0.2777273952960968,10.017339706420898,381867367620596
1507,-0.047884032130241394,-0.28730419278144836,10.007762908935547,381867387670254
1508,-0.028730420395731926,-0.22984336316585541,10.036493301391602,381867407750428
1509,-0.019153613597154617,-0.31603461503982544,9.9981861114501953,381867427830603
1510,-0.0095768067985773087,-0.30645781755447388,9.9886093139648438,381867447910778
1511,0.019153613597154617,-0.31603461503982544,10.046070098876953,381867467990953
1512,-0.028730420395731926,-0.32561144232749939,10.084377288818359,381867488071128
1513,-0.038307227194309235,-0.30645781755447388,9.9981861114501953,381867508151302
